"","id","Letter","CorrAnswer","Stimulus","nback_run.thisRepN","nback_run.thisTrialN","nback_run.thisN","nback_run.thisIndex","fixcross.started","nback_trial.started","trial_resp.keys","trial_resp.corr","currentlevel","trial_resp.rt","Participant","date","expName","psychopyVersion","frameRate","X"
"1","C02N10_t1_nback.csv","H","left","Distractor",0,0,0,0,84.8151955593294,86.8015839280738,"left",1,1,1.18824600513244,"C02N10","2021_Oct_01_1339","t1_Paradigm","2021.1.4",60.0129567845193,NA
"2","C02N10_t1_nback.csv","Q","left","Pretarget",0,1,1,1,88.2993057522694,90.299434073092,"left",1,1,0.459006790416879,"C02N10","2021_Oct_01_1339","t1_Paradigm","2021.1.4",60.0129567845193,NA
"3","C02N10_t1_nback.csv","Q","right","Target",0,2,2,2,91.7954017516436,93.7954007892372,"right",1,1,0.578309867197731,"C02N10","2021_Oct_01_1339","t1_Paradigm","2021.1.4",60.0129567845193,NA
"4","C02N10_t1_nback.csv","T","left","Distractor",0,3,3,3,95.2953929295868,97.297904809689,"left",1,1,0.371848079695155,"C02N10","2021_Oct_01_1339","t1_Paradigm","2021.1.4",60.0129567845193,NA
"5","C02N10_t1_nback.csv","Q","left","Lure",0,4,4,4,98.7952897917257,100.796256689124,"left",1,1,0.457458920494446,"C02N10","2021_Oct_01_1339","t1_Paradigm","2021.1.4",60.0129567845193,NA
"6","C02N10_t1_nback.csv","L","left","Distractor",0,5,5,5,102.295415385731,104.297262884774,"left",1,1,0.444607910914783,"C02N10","2021_Oct_01_1339","t1_Paradigm","2021.1.4",60.0129567845193,NA
"7","C02N10_t1_nback.csv","V","left","Pretarget",0,6,6,6,105.795388919561,107.79709847372,"left",1,1,0.448612162183053,"C02N10","2021_Oct_01_1339","t1_Paradigm","2021.1.4",60.0129567845193,NA
"8","C02N10_t1_nback.csv","V","right","Target",0,7,7,7,109.295488849401,111.295179275417,"right",1,1,0.422545070282467,"C02N10","2021_Oct_01_1339","t1_Paradigm","2021.1.4",60.0129567845193,NA
"9","C02N10_t1_nback.csv","K","left","Distractor",0,8,8,8,112.795971816898,114.7981872759,"left",1,1,0.471583193437255,"C02N10","2021_Oct_01_1339","t1_Paradigm","2021.1.4",60.0129567845193,NA
"10","C02N10_t1_nback.csv","G","left","Pretarget",0,9,9,9,116.295369190235,118.297428097833,"left",1,1,0.44445970036395,"C02N10","2021_Oct_01_1339","t1_Paradigm","2021.1.4",60.0129567845193,NA
"11","C02N10_t1_nback.csv","G","right","Target",0,10,10,10,119.795425811798,121.795439285484,"right",1,1,0.466469608657462,"C02N10","2021_Oct_01_1339","t1_Paradigm","2021.1.4",60.0129567845193,NA
"12","C02N10_t1_nback.csv","G","right","Target",0,11,11,11,123.295365661412,125.295561671469,"right",1,1,0.470273358640043,"C02N10","2021_Oct_01_1339","t1_Paradigm","2021.1.4",60.0129567845193,NA
"13","C02N10_t1_nback.csv","P","left","Pretarget",0,12,12,12,126.795397260415,128.799011416383,"left",1,1,0.486715426440242,"C02N10","2021_Oct_01_1339","t1_Paradigm","2021.1.4",60.0129567845193,NA
"14","C02N10_t1_nback.csv","P","right","Target",0,13,13,13,130.295575145155,132.295402232847,"right",1,1,0.478291806041852,"C02N10","2021_Oct_01_1339","t1_Paradigm","2021.1.4",60.0129567845193,NA
"15","C02N10_t1_nback.csv","G","left","Lure",0,14,14,14,133.795406884477,135.796155636476,"left",1,1,0.513765135040558,"C02N10","2021_Oct_01_1339","t1_Paradigm","2021.1.4",60.0129567845193,NA
"16","C02N10_t1_nback.csv","Y","left","Distractor",0,15,15,15,137.295388117556,139.297203215591,"left",1,1,0.516576002658439,"C02N10","2021_Oct_01_1339","t1_Paradigm","2021.1.4",60.0129567845193,NA
"17","C02N10_t1_nback.csv","B","left","Distractor",0,16,16,16,140.795424207788,142.798279987694,"left",1,1,0.455466098119359,"C02N10","2021_Oct_01_1339","t1_Paradigm","2021.1.4",60.0129567845193,NA
"18","C02N10_t1_nback.csv","T","left","Pretarget",0,17,17,17,144.295392608785,146.297480388568,"left",1,1,0.524298991366777,"C02N10","2021_Oct_01_1339","t1_Paradigm","2021.1.4",60.0129567845193,NA
"19","C02N10_t1_nback.csv","T","right","Target",0,18,18,18,147.79596283444,149.795640107572,"right",1,1,0.418183445523027,"C02N10","2021_Oct_01_1339","t1_Paradigm","2021.1.4",60.0129567845193,NA
"20","C02N10_t1_nback.csv","S","left","Distractor",0,19,19,19,151.296167345751,153.298904749699,"left",1,1,0.450909104907623,"C02N10","2021_Oct_01_1339","t1_Paradigm","2021.1.4",60.0129567845193,NA
"21","C02N10_t1_nback.csv","T","left","Lure",0,20,20,20,154.795420999767,156.796369290646,"left",1,1,0.553494224119277,"C02N10","2021_Oct_01_1339","t1_Paradigm","2021.1.4",60.0129567845193,NA
"22","C02N10_t1_nback.csv","J","left","Distractor",0,21,21,21,158.295411856908,160.29732768679,"left",1,1,0.492412550162044,"C02N10","2021_Oct_01_1339","t1_Paradigm","2021.1.4",60.0129567845193,NA
"23","C02N10_t1_nback.csv","P","left","Distractor",0,22,22,22,161.795368067427,163.795933320651,"left",1,1,0.417915255004118,"C02N10","2021_Oct_01_1339","t1_Paradigm","2021.1.4",60.0129567845193,NA
"24","C02N10_t1_nback.csv","F","left","Distractor",0,23,23,23,165.295382022317,167.308621843989,"left",1,1,0.393261616964992,"C02N10","2021_Oct_01_1339","t1_Paradigm","2021.1.4",60.0129567845193,NA
"25","C02N10_t1_nback.csv","L","left","Distractor",0,24,24,24,168.795427415808,170.795824247952,"left",1,1,0.393968664696331,"C02N10","2021_Oct_01_1339","t1_Paradigm","2021.1.4",60.0129567845193,NA
"26","C02N10_t1_nback.csv","W","left","Pretarget",0,25,25,25,172.295421160168,174.295155856867,"left",1,1,0.430752470095285,"C02N10","2021_Oct_01_1339","t1_Paradigm","2021.1.4",60.0129567845193,NA
"27","C02N10_t1_nback.csv","W","right","Target",0,26,26,26,175.796062924682,177.795841892065,"right",1,1,0.386043570693801,"C02N10","2021_Oct_01_1339","t1_Paradigm","2021.1.4",60.0129567845193,NA
"28","C02N10_t1_nback.csv","V","left","Distractor",0,27,27,27,179.296280909679,181.297384147952,"left",1,1,0.340362320258464,"C02N10","2021_Oct_01_1339","t1_Paradigm","2021.1.4",60.0129567845193,NA
"29","C02N10_t1_nback.csv","W","left","Lure",0,28,28,28,182.796493761844,184.796026994852,"left",1,1,0.441757263840373,"C02N10","2021_Oct_01_1339","t1_Paradigm","2021.1.4",60.0129567845193,NA
"30","C02N10_t1_nback.csv","R","left","Pretarget",0,29,29,29,186.295895305607,188.298945170758,"left",1,1,0.538845760616823,"C02N10","2021_Oct_01_1339","t1_Paradigm","2021.1.4",60.0129567845193,NA
"31","C02N10_t1_nback.csv","R","right","Target",0,30,30,30,189.795902202852,191.795439285484,"right",1,1,0.450327490779273,"C02N10","2021_Oct_01_1339","t1_Paradigm","2021.1.4",60.0129567845193,NA
"32","C02N10_t1_nback.csv","G","left","Distractor",0,31,31,31,193.295436879469,195.297235295797,"left",1,1,0.404530109999541,"C02N10","2021_Oct_01_1339","t1_Paradigm","2021.1.4",60.0129567845193,NA
"33","C02N10_t1_nback.csv","R","left","Lure",0,32,32,32,196.795438002276,198.796609892188,"left",1,1,0.473275424285021,"C02N10","2021_Oct_01_1339","t1_Paradigm","2021.1.4",60.0129567845193,NA
"34","C02N10_t1_nback.csv","S","left","Distractor",0,33,33,33,200.295614603808,202.295254343098,"left",1,1,0.366814374626301,"C02N10","2021_Oct_01_1339","t1_Paradigm","2021.1.4",60.0129567845193,NA
"35","C02N10_t1_nback.csv","R","left","Lure",0,34,34,34,203.796291014944,205.797222944918,"left",1,1,0.400479342432845,"C02N10","2021_Oct_01_1339","t1_Paradigm","2021.1.4",60.0129567845193,NA
"36","C02N10_t1_nback.csv","P","left","Pretarget",0,35,35,35,207.295305671428,209.29547152609,"left",1,1,0.454242559076192,"C02N10","2021_Oct_01_1339","t1_Paradigm","2021.1.4",60.0129567845193,NA
"37","C02N10_t1_nback.csv","P","right","Target",0,36,36,36,210.795486122584,212.795600328116,"right",1,1,0.506198056131325,"C02N10","2021_Oct_01_1339","t1_Paradigm","2021.1.4",60.0129567845193,NA
"38","C02N10_t1_nback.csv","Y","left","Pretarget",0,37,37,37,214.296062443479,216.297765260794,"left",1,1,0.41220144957606,"C02N10","2021_Oct_01_1339","t1_Paradigm","2021.1.4",60.0129567845193,NA
"39","C02N10_t1_nback.csv","Y","right","Target",0,38,38,38,217.795521410811,219.795575305556,"right",1,1,0.482288999665798,"C02N10","2021_Oct_01_1339","t1_Paradigm","2021.1.4",60.0129567845193,NA
"40","C02N10_t1_nback.csv","J","left","Distractor",0,39,39,39,221.295491095016,223.296490714224,"left",1,1,0.405264425906353,"C02N10","2021_Oct_01_1339","t1_Paradigm","2021.1.4",60.0129567845193,NA
"41","C02N10_t1_nback.csv","Y","left","Lure",0,40,40,40,224.79545275917,226.797301862224,"left",1,1,0.424546875115084,"C02N10","2021_Oct_01_1339","t1_Paradigm","2021.1.4",60.0129567845193,NA
"42","C02N10_t1_nback.csv","T","left","Distractor",0,41,41,41,228.295417631345,230.297256147931,"left",1,1,0.396745527296844,"C02N10","2021_Oct_01_1339","t1_Paradigm","2021.1.4",60.0129567845193,NA
"43","C02N10_t1_nback.csv","V","left","Distractor",0,42,42,42,231.796200227962,233.797243797052,"left",1,1,0.432573342567593,"C02N10","2021_Oct_01_1339","t1_Paradigm","2021.1.4",60.0129567845193,NA
"44","C02N10_t1_nback.csv","N","left","Pretarget",0,43,43,43,235.295543064949,237.297740879838,"left",1,1,0.419985069871473,"C02N10","2021_Oct_01_1339","t1_Paradigm","2021.1.4",60.0129567845193,NA
"45","C02N10_t1_nback.csv","N","right","Target",0,44,44,44,238.795308398245,240.795184889454,"right",1,1,0.52266867531489,"C02N10","2021_Oct_01_1339","t1_Paradigm","2021.1.4",60.0129567845193,NA
"46","C02N10_t1_nback.csv","N","right","Target",0,45,45,45,242.296282834492,244.295601130121,"right",1,1,0.478204547882342,"C02N10","2021_Oct_01_1339","t1_Paradigm","2021.1.4",60.0129567845193,NA
"47","C02N10_t1_nback.csv","X","left","Distractor",0,46,46,46,245.796261180352,247.797937371098,"left",1,1,0.383925956319217,"C02N10","2021_Oct_01_1339","t1_Paradigm","2021.1.4",60.0129567845193,NA
"48","C02N10_t1_nback.csv","Z","left","Distractor",0,47,47,47,249.295579315582,251.297322233155,"left",1,1,0.436422967246472,"C02N10","2021_Oct_01_1339","t1_Paradigm","2021.1.4",60.0129567845193,NA
"49","C02N10_t1_nback.csv","H","left","Pretarget",0,48,48,48,252.795310964661,254.7971578221,"left",1,1,0.408661078081423,"C02N10","2021_Oct_01_1339","t1_Paradigm","2021.1.4",60.0129567845193,NA
"50","C02N10_t1_nback.csv","H","right","Target",0,49,49,49,256.295425009793,258.29543399225,"right",1,1,0.510341856295781,"C02N10","2021_Oct_01_1339","t1_Paradigm","2021.1.4",60.0129567845193,NA
"51","C02N10_t1_nback.csv","K","left","Distractor",0,50,50,50,259.795407205278,261.79634811771,"left",1,1,0.449702568373141,"C02N10","2021_Oct_01_1339","t1_Paradigm","2021.1.4",60.0129567845193,NA
"52","C02N10_t1_nback.csv","V","left","Pretarget",0,51,51,51,263.296054744229,265.296971917309,"left",1,1,0.404737348128037,"C02N10","2021_Oct_01_1339","t1_Paradigm","2021.1.4",60.0129567845193,NA
"53","C02N10_t1_nback.csv","V","right","Target",0,52,52,52,266.795419395757,268.795375766676,"right",1,1,0.426361973150961,"C02N10","2021_Oct_01_1339","t1_Paradigm","2021.1.4",60.0129567845193,NA
"54","C02N10_t1_nback.csv","R","left","Distractor",0,53,53,53,270.295854563746,272.297691476321,"left",1,1,0.364348048417014,"C02N10","2021_Oct_01_1339","t1_Paradigm","2021.1.4",60.0129567845193,NA
"55","C02N10_t1_nback.csv","V","left","Lure",0,54,54,54,273.795695285525,275.797426654224,"left",1,1,0.496541914231784,"C02N10","2021_Oct_01_1339","t1_Paradigm","2021.1.4",60.0129567845193,NA
"56","C02N10_t1_nback.csv","Y","left","Distractor",0,55,55,55,277.295499756671,279.298138674388,"left",1,1,0.435580220243537,"C02N10","2021_Oct_01_1339","t1_Paradigm","2021.1.4",60.0129567845193,NA
"57","C02N10_t1_nback.csv","Q","left","Distractor",0,56,56,56,280.796354533751,282.797237381011,"left",1,1,0.392691872511932,"C02N10","2021_Oct_01_1339","t1_Paradigm","2021.1.4",60.0129567845193,NA
"58","C02N10_t1_nback.csv","Z","left","Pretarget",0,57,57,57,284.296202313175,286.297355917371,"left",1,1,0.396626188932714,"C02N10","2021_Oct_01_1339","t1_Paradigm","2021.1.4",60.0129567845193,NA
"59","C02N10_t1_nback.csv","Z","right","Target",0,58,58,58,287.795252578687,289.795430623828,"right",1,1,0.674306995377265,"C02N10","2021_Oct_01_1339","t1_Paradigm","2021.1.4",60.0129567845193,NA
"60","C02N10_t1_nback.csv","B","left","Distractor",0,59,59,59,291.295528308055,293.296661380919,"left",1,1,0.421057190344982,"C02N10","2021_Oct_01_1339","t1_Paradigm","2021.1.4",60.0129567845193,NA
"61","C02N10_t1_nback.csv","S","left","Pretarget",0,60,60,60,294.796284598903,296.797645120424,"left",1,1,0.424227356266783,"C02N10","2021_Oct_01_1339","t1_Paradigm","2021.1.4",60.0129567845193,NA
"62","C02N10_t1_nback.csv","S","right","Target",0,61,61,61,298.295454844384,300.295494303036,"right",1,1,0.398489086474001,"C02N10","2021_Oct_01_1339","t1_Paradigm","2021.1.4",60.0129567845193,NA
"63","C02N10_t1_nback.csv","T","left","Distractor",0,62,62,62,301.795499596271,303.796512047561,"left",1,1,0.417365400278868,"C02N10","2021_Oct_01_1339","t1_Paradigm","2021.1.4",60.0129567845193,NA
"64","C02N10_t1_nback.csv","D","left","Distractor",0,63,63,63,305.295455485988,307.297370353463,"left",1,1,0.388438358045278,"C02N10","2021_Oct_01_1339","t1_Paradigm","2021.1.4",60.0129567845193,NA
"65","C02N10_t1_nback.csv","R","left","Distractor",0,0,0,0,321.892518158198,323.881022216505,"left",1,1,0.556791427655298,"C02N10","2021_Oct_01_1339","t1_Paradigm","2021.1.4",60.0129567845193,NA
"66","C02N10_t1_nback.csv","V","left","Distractor",0,1,1,1,325.3791338152,327.378273744886,"left",1,1,0.371691207488766,"C02N10","2021_Oct_01_1339","t1_Paradigm","2021.1.4",60.0129567845193,NA
"67","C02N10_t1_nback.csv","N","left","Pretarget",0,2,2,2,328.879706607271,330.880994627528,"left",1,1,0.404741839356575,"C02N10","2021_Oct_01_1339","t1_Paradigm","2021.1.4",60.0129567845193,NA
"68","C02N10_t1_nback.csv","N","right","Target",0,3,3,3,332.378629835169,334.378865945482,"right",1,1,0.442984331706612,"C02N10","2021_Oct_01_1339","t1_Paradigm","2021.1.4",60.0129567845193,NA
"69","C02N10_t1_nback.csv","S","left","Distractor",0,4,4,4,335.878723028166,337.880445735209,"left",1,1,0.413548497411284,"C02N10","2021_Oct_01_1339","t1_Paradigm","2021.1.4",60.0129567845193,NA
"70","C02N10_t1_nback.csv","N","left","Lure",0,5,5,5,339.378849263775,341.381072101224,"left",1,1,0.384811690796596,"C02N10","2021_Oct_01_1339","t1_Paradigm","2021.1.4",60.0129567845193,NA
"71","C02N10_t1_nback.csv","Z","left","Distractor",0,6,6,6,342.878907489348,344.880579830469,"left",1,1,0.389339811824357,"C02N10","2021_Oct_01_1339","t1_Paradigm","2021.1.4",60.0129567845193,NA
"72","C02N10_t1_nback.csv","L","left","Pretarget",0,7,7,7,346.37954572504,348.381021735302,"left",1,1,0.377424261040687,"C02N10","2021_Oct_01_1339","t1_Paradigm","2021.1.4",60.0129567845193,NA
"73","C02N10_t1_nback.csv","L","right","Target",0,8,8,8,349.87863641161,351.878707950469,"right",1,1,0.495022274890289,"C02N10","2021_Oct_01_1339","t1_Paradigm","2021.1.4",60.0129567845193,NA
"74","C02N10_t1_nback.csv","H","left","Distractor",0,9,9,9,353.378692070768,355.379338166109,"None",0,1,NA,"C02N10","2021_Oct_01_1339","t1_Paradigm","2021.1.4",60.0129567845193,NA
"75","C02N10_t1_nback.csv","L","left","Lure",0,10,10,10,356.878714687313,358.88084673778,"left",1,1,0.501062336010364,"C02N10","2021_Oct_01_1339","t1_Paradigm","2021.1.4",60.0129567845193,NA
"76","C02N10_t1_nback.csv","X","left","Pretarget",0,11,11,11,360.378824882819,362.381089745338,"left",1,1,0.42475603805633,"C02N10","2021_Oct_01_1339","t1_Paradigm","2021.1.4",60.0129567845193,NA
"77","C02N10_t1_nback.csv","X","right","Target",0,12,12,12,363.879389013236,365.879053775087,"right",1,1,0.36698921174775,"C02N10","2021_Oct_01_1339","t1_Paradigm","2021.1.4",60.0129567845193,NA
"78","C02N10_t1_nback.csv","X","right","Target",0,13,13,13,367.379856582233,369.379060030727,"right",1,1,0.434756400562037,"C02N10","2021_Oct_01_1339","t1_Paradigm","2021.1.4",60.0129567845193,NA
"79","C02N10_t1_nback.csv","R","left","Distractor",0,14,14,14,370.879256201184,372.880943940803,"left",1,1,0.532915413800765,"C02N10","2021_Oct_01_1339","t1_Paradigm","2021.1.4",60.0129567845193,NA
"80","C02N10_t1_nback.csv","T","left","Distractor",0,15,15,15,374.37970644687,376.381023660114,"left",1,1,0.360872158134953,"C02N10","2021_Oct_01_1339","t1_Paradigm","2021.1.4",60.0129567845193,NA
"81","C02N10_t1_nback.csv","V","left","Pretarget",0,16,16,16,377.878664962994,379.881075790448,"left",1,1,0.412921329390883,"C02N10","2021_Oct_01_1339","t1_Paradigm","2021.1.4",60.0129567845193,NA
"82","C02N10_t1_nback.csv","V","right","Target",0,17,17,17,381.378798897852,383.378783178552,"right",1,1,0.451131420732963,"C02N10","2021_Oct_01_1339","t1_Paradigm","2021.1.4",60.0129567845193,NA
"83","C02N10_t1_nback.csv","N","left","Distractor",0,18,18,18,384.878988652269,386.880807279127,"left",1,1,0.452955822028343,"C02N10","2021_Oct_01_1339","t1_Paradigm","2021.1.4",60.0129567845193,NA
"84","C02N10_t1_nback.csv","B","left","Distractor",0,19,19,19,388.378640100835,390.378926256269,"left",1,1,0.379490226284361,"C02N10","2021_Oct_01_1339","t1_Paradigm","2021.1.4",60.0129567845193,NA
"85","C02N10_t1_nback.csv","V","left","Lure",0,20,20,20,391.878823760012,393.88091699343,"left",1,1,0.413074031169344,"C02N10","2021_Oct_01_1339","t1_Paradigm","2021.1.4",60.0129567845193,NA
"86","C02N10_t1_nback.csv","P","left","Distractor",0,21,21,21,395.379269193667,397.380935439549,"left",1,1,0.401010911440608,"C02N10","2021_Oct_01_1339","t1_Paradigm","2021.1.4",60.0129567845193,NA
"87","C02N10_t1_nback.csv","K","left","Pretarget",0,22,22,22,398.879516371651,400.881103058623,"left",1,1,0.404659714030458,"C02N10","2021_Oct_01_1339","t1_Paradigm","2021.1.4",60.0129567845193,NA
"88","C02N10_t1_nback.csv","K","right","Target",0,23,23,23,402.378709714881,404.37882969485,"right",1,1,0.506989474804868,"C02N10","2021_Oct_01_1339","t1_Paradigm","2021.1.4",60.0129567845193,NA
"89","C02N10_t1_nback.csv","J","left","Pretarget",0,24,24,24,405.87902618611,407.88079220143,"left",1,1,0.316957885426746,"C02N10","2021_Oct_01_1339","t1_Paradigm","2021.1.4",60.0129567845193,NA
"90","C02N10_t1_nback.csv","J","right","Target",0,25,25,25,409.37863785522,411.378495098305,"right",1,1,0.515502598977946,"C02N10","2021_Oct_01_1339","t1_Paradigm","2021.1.4",60.0129567845193,NA
"91","C02N10_t1_nback.csv","H","left","Distractor",0,26,26,26,412.879609083446,414.881010026027,"left",1,1,0.436751789354275,"C02N10","2021_Oct_01_1339","t1_Paradigm","2021.1.4",60.0129567845193,NA
"92","C02N10_t1_nback.csv","J","left","Lure",0,27,27,27,416.379190597163,418.380699008433,"left",1,1,0.40929883256922,"C02N10","2021_Oct_01_1339","t1_Paradigm","2021.1.4",60.0129567845193,NA
"93","C02N10_t1_nback.csv","V","left","Distractor",0,28,28,28,419.878839479313,421.880818828001,"left",1,1,0.717023393206546,"C02N10","2021_Oct_01_1339","t1_Paradigm","2021.1.4",60.0129567845193,NA
"94","C02N10_t1_nback.csv","Z","left","Pretarget",0,29,29,29,423.378802747477,425.379753604772,"left",1,1,0.57853346623051,"C02N10","2021_Oct_01_1339","t1_Paradigm","2021.1.4",60.0129567845193,NA
"95","C02N10_t1_nback.csv","Z","right","Target",0,30,30,30,426.878794567025,428.879078156043,"right",1,1,0.534838301326999,"C02N10","2021_Oct_01_1339","t1_Paradigm","2021.1.4",60.0129567845193,NA
"96","C02N10_t1_nback.csv","T","left","Distractor",0,31,31,31,430.379766757656,432.381028472145,"left",1,1,0.377329303631086,"C02N10","2021_Oct_01_1339","t1_Paradigm","2021.1.4",60.0129567845193,NA
"97","C02N10_t1_nback.csv","Z","left","Lure",0,32,32,32,433.878588612104,435.878950476824,"left",1,1,0.447057555417814,"C02N10","2021_Oct_01_1339","t1_Paradigm","2021.1.4",60.0129567845193,NA
"98","C02N10_t1_nback.csv","F","left","Distractor",0,33,33,33,437.379281704947,439.381033604977,"left",1,1,0.432806886465187,"C02N10","2021_Oct_01_1339","t1_Paradigm","2021.1.4",60.0129567845193,NA
"99","C02N10_t1_nback.csv","Y","left","Pretarget",0,34,34,34,440.878599840176,442.879802206284,"left",1,1,0.421990082724733,"C02N10","2021_Oct_01_1339","t1_Paradigm","2021.1.4",60.0129567845193,NA
"100","C02N10_t1_nback.csv","Y","right","Target",0,35,35,35,444.378703619642,446.379042707415,"right",1,1,0.458818158807844,"C02N10","2021_Oct_01_1339","t1_Paradigm","2021.1.4",60.0129567845193,NA
"101","C02N10_t1_nback.csv","Y","right","Target",0,36,36,36,447.879654316536,449.879057624711,"right",1,1,0.414928587858412,"C02N10","2021_Oct_01_1339","t1_Paradigm","2021.1.4",60.0129567845193,NA
"102","C02N10_t1_nback.csv","W","left","Distractor",0,37,37,37,451.379064842758,453.379152100916,"left",1,1,0.40270987913118,"C02N10","2021_Oct_01_1339","t1_Paradigm","2021.1.4",60.0129567845193,NA
"103","C02N10_t1_nback.csv","Q","left","Distractor",0,38,38,38,454.878689985554,456.879023940495,"left",1,1,0.406759042687554,"C02N10","2021_Oct_01_1339","t1_Paradigm","2021.1.4",60.0129567845193,NA
"104","C02N10_t1_nback.csv","P","left","Pretarget",0,39,39,39,458.378787990582,460.380825725245,"left",1,1,0.425023266168864,"C02N10","2021_Oct_01_1339","t1_Paradigm","2021.1.4",60.0129567845193,NA
"105","C02N10_t1_nback.csv","P","right","Target",0,40,40,40,461.878755429174,463.879027148516,"right",1,1,0.414970292125872,"C02N10","2021_Oct_01_1339","t1_Paradigm","2021.1.4",60.0129567845193,NA
"106","C02N10_t1_nback.csv","J","left","Distractor",0,41,41,41,465.37943344432,467.381047399466,"left",1,1,0.352729881139567,"C02N10","2021_Oct_01_1339","t1_Paradigm","2021.1.4",60.0129567845193,NA
"107","C02N10_t1_nback.csv","P","left","Lure",0,42,42,42,468.878660792567,470.880993665121,"left",1,1,0.388817866877616,"C02N10","2021_Oct_01_1339","t1_Paradigm","2021.1.4",60.0129567845193,NA
"108","C02N10_t1_nback.csv","L","left","Distractor",0,43,43,43,472.378746286316,474.380494978325,"left",1,1,0.393295621982361,"C02N10","2021_Oct_01_1339","t1_Paradigm","2021.1.4",60.0129567845193,NA
"109","C02N10_t1_nback.csv","Z","left","Distractor",0,44,44,44,475.878838196104,477.880371950736,"left",1,1,0.381385845636032,"C02N10","2021_Oct_01_1339","t1_Paradigm","2021.1.4",60.0129567845193,NA
"110","C02N10_t1_nback.csv","F","left","Pretarget",0,45,45,45,479.379628812772,481.380543419436,"left",1,1,0.369216219623922,"C02N10","2021_Oct_01_1339","t1_Paradigm","2021.1.4",60.0129567845193,NA
"111","C02N10_t1_nback.csv","F","right","Target",0,46,46,46,482.878839479313,484.878830817657,"right",1,1,0.438988421291469,"C02N10","2021_Oct_01_1339","t1_Paradigm","2021.1.4",60.0129567845193,NA
"112","C02N10_t1_nback.csv","G","left","Pretarget",0,47,47,47,486.378878456762,488.379810386737,"left",1,1,0.362136439039205,"C02N10","2021_Oct_01_1339","t1_Paradigm","2021.1.4",60.0129567845193,NA
"113","C02N10_t1_nback.csv","G","right","Target",0,48,48,48,489.878844612145,491.878785905369,"right",1,1,0.47937836260644,"C02N10","2021_Oct_01_1339","t1_Paradigm","2021.1.4",60.0129567845193,NA
"114","C02N10_t1_nback.csv","V","left","Distractor",0,49,49,49,493.378779008125,495.397646339472,"left",1,1,0.368299367346481,"C02N10","2021_Oct_01_1339","t1_Paradigm","2021.1.4",60.0129567845193,NA
"115","C02N10_t1_nback.csv","G","left","Lure",0,50,50,50,496.8796174243,498.880772953307,"left",1,1,0.373034084897881,"C02N10","2021_Oct_01_1339","t1_Paradigm","2021.1.4",60.0129567845193,NA
"116","C02N10_t1_nback.csv","Q","left","Pretarget",0,51,51,51,500.378730246212,502.380879940793,"left",1,1,0.504966497036548,"C02N10","2021_Oct_01_1339","t1_Paradigm","2021.1.4",60.0129567845193,NA
"117","C02N10_t1_nback.csv","Q","right","Target",0,52,52,52,503.878777564516,505.878849103375,"right",1,1,0.399098931183289,"C02N10","2021_Oct_01_1339","t1_Paradigm","2021.1.4",60.0129567845193,NA
"118","C02N10_t1_nback.csv","Y","left","Distractor",0,53,53,53,507.378762005615,509.379949935631,"left",1,1,0.401905628375971,"C02N10","2021_Oct_01_1339","t1_Paradigm","2021.1.4",60.0129567845193,NA
"119","C02N10_t1_nback.csv","V","left","Distractor",0,54,54,54,510.878748371529,512.880989173893,"left",1,1,0.404855082482754,"C02N10","2021_Oct_01_1339","t1_Paradigm","2021.1.4",60.0129567845193,NA
"120","C02N10_t1_nback.csv","B","left","Distractor",0,55,55,55,514.379713825318,516.379717033338,"left",1,1,0.346217278591212,"C02N10","2021_Oct_01_1339","t1_Paradigm","2021.1.4",60.0129567845193,NA
"121","C02N10_t1_nback.csv","J","left","Pretarget",0,56,56,56,517.87876890286,519.87974382031,"left",1,1,0.334126249083056,"C02N10","2021_Oct_01_1339","t1_Paradigm","2021.1.4",60.0129567845193,NA
"122","C02N10_t1_nback.csv","J","right","Target",0,57,57,57,521.378810446727,523.3788062763,"right",1,1,0.483186603819377,"C02N10","2021_Oct_01_1339","t1_Paradigm","2021.1.4",60.0129567845193,NA
"123","C02N10_t1_nback.csv","H","left","Distractor",0,58,58,58,524.878905885338,526.880574056032,"left",1,1,0.389213736616512,"C02N10","2021_Oct_01_1339","t1_Paradigm","2021.1.4",60.0129567845193,NA
"124","C02N10_t1_nback.csv","J","left","Lure",0,59,59,59,528.378769063261,530.378680201092,"left",1,1,0.443150827974023,"C02N10","2021_Oct_01_1339","t1_Paradigm","2021.1.4",60.0129567845193,NA
"125","C02N10_t1_nback.csv","D","left","Pretarget",0,60,60,60,531.879629614778,533.881109795466,"left",1,1,0.41292004618299,"C02N10","2021_Oct_01_1339","t1_Paradigm","2021.1.4",60.0129567845193,NA
"126","C02N10_t1_nback.csv","D","right","Target",0,61,61,61,535.378600642181,537.378747569524,"right",1,1,0.515271942298568,"C02N10","2021_Oct_01_1339","t1_Paradigm","2021.1.4",60.0129567845193,NA
"127","C02N10_t1_nback.csv","R","left","Distractor",0,62,62,62,538.879002446757,540.880075850439,"left",1,1,0.453748203107352,"C02N10","2021_Oct_01_1339","t1_Paradigm","2021.1.4",60.0129567845193,NA
"128","C02N10_t1_nback.csv","F","left","Distractor",0,63,63,63,542.378764892835,544.380993183919,"left",1,1,0.408891734758981,"C02N10","2021_Oct_01_1339","t1_Paradigm","2021.1.4",60.0129567845193,NA
"129","C02N10_t1_nback.csv","F","left","Distractor",0,0,0,0,644.259360763406,646.245685292541,"left",1,2,0.368249001423465,"C02N10","2021_Oct_01_1339","t1_Paradigm","2021.1.4",60.0129567845193,NA
"130","C02N10_t1_nback.csv","N","left","Pretarget",0,1,1,1,647.745655618351,649.747326355461,"left",1,2,0.530622641503214,"C02N10","2021_Oct_01_1339","t1_Paradigm","2021.1.4",60.0129567845193,NA
"131","C02N10_t1_nback.csv","V","left","Distractor",0,2,2,2,651.24542159325,653.247303097311,"left",1,2,0.502633303680341,"C02N10","2021_Oct_01_1339","t1_Paradigm","2021.1.4",60.0129567845193,NA
"132","C02N10_t1_nback.csv","N","right","Target",0,3,3,3,654.745425603276,656.747645874309,"right",1,2,0.682289192146527,"C02N10","2021_Oct_01_1339","t1_Paradigm","2021.1.4",60.0129567845193,NA
"133","C02N10_t1_nback.csv","N","left","Lure",0,4,4,4,658.245459768696,660.245482224839,"right",0,2,1.0563386155527,"C02N10","2021_Oct_01_1339","t1_Paradigm","2021.1.4",60.0129567845193,NA
"134","C02N10_t1_nback.csv","X","left","Distractor",0,5,5,5,661.745651447924,663.746711377918,"left",1,2,0.70714974751354,"C02N10","2021_Oct_01_1339","t1_Paradigm","2021.1.4",60.0129567845193,NA
"135","C02N10_t1_nback.csv","G","left","Pretarget",0,6,6,6,665.245422555657,667.247728480838,"left",1,2,0.550170394012639,"C02N10","2021_Oct_01_1339","t1_Paradigm","2021.1.4",60.0129567845193,NA
"136","C02N10_t1_nback.csv","H","left","Pretarget",0,7,7,7,668.745398335102,670.747431578536,"left",1,2,0.506429354414649,"C02N10","2021_Oct_01_1339","t1_Paradigm","2021.1.4",60.0129567845193,NA
"137","C02N10_t1_nback.csv","G","right","Target",0,8,8,8,672.245563066957,674.246388490648,"right",1,2,0.591447032212272,"C02N10","2021_Oct_01_1339","t1_Paradigm","2021.1.4",60.0129567845193,NA
"138","C02N10_t1_nback.csv","H","right","Target",0,9,9,9,675.745483347647,677.746535257589,"right",1,2,0.483411486060504,"C02N10","2021_Oct_01_1339","t1_Paradigm","2021.1.4",60.0129567845193,NA
"139","C02N10_t1_nback.csv","T","left","Pretarget",0,10,10,10,679.246062876561,681.247131147409,"left",1,2,0.566761955570655,"C02N10","2021_Oct_01_1339","t1_Paradigm","2021.1.4",60.0129567845193,NA
"140","C02N10_t1_nback.csv","K","left","Distractor",0,11,11,11,682.745374595749,684.747273102319,"right",0,2,1.11477014372304,"C02N10","2021_Oct_01_1339","t1_Paradigm","2021.1.4",60.0129567845193,NA
"141","C02N10_t1_nback.csv","T","right","Target",0,12,12,12,686.245623056942,688.247209423112,"right",1,2,0.63862097461606,"C02N10","2021_Oct_01_1339","t1_Paradigm","2021.1.4",60.0129567845193,NA
"142","C02N10_t1_nback.csv","T","left","Lure",0,13,13,13,689.745450305035,691.745597873981,"left",1,2,1.42821300101696,"C02N10","2021_Oct_01_1339","t1_Paradigm","2021.1.4",60.0129567845193,NA
"143","C02N10_t1_nback.csv","J","left","Distractor",0,14,14,14,693.245518475472,695.246968179965,"left",1,2,0.838905076917399,"C02N10","2021_Oct_01_1339","t1_Paradigm","2021.1.4",60.0129567845193,NA
"144","C02N10_t1_nback.csv","Q","left","Pretarget",0,15,15,15,696.745963588325,698.74759614999,"left",1,2,0.538289169048767,"C02N10","2021_Oct_01_1339","t1_Paradigm","2021.1.4",60.0129567845193,NA
"145","C02N10_t1_nback.csv","M","left","Distractor",0,16,16,16,700.245933593333,702.248924430905,"left",1,2,0.461119271959433,"C02N10","2021_Oct_01_1339","t1_Paradigm","2021.1.4",60.0129567845193,NA
"146","C02N10_t1_nback.csv","Q","right","Target",0,17,17,17,703.745418545631,705.74618430014,"right",1,2,0.515883391018178,"C02N10","2021_Oct_01_1339","t1_Paradigm","2021.1.4",60.0129567845193,NA
"147","C02N10_t1_nback.csv","R","left","Distractor",0,18,18,18,707.245390154649,709.246122224942,"left",1,2,0.663918783185181,"C02N10","2021_Oct_01_1339","t1_Paradigm","2021.1.4",60.0129567845193,NA
"148","C02N10_t1_nback.csv","W","left","Distractor",0,19,19,19,710.745467307544,712.747713242741,"left",1,2,0.810390586128051,"C02N10","2021_Oct_01_1339","t1_Paradigm","2021.1.4",60.0129567845193,NA
"149","C02N10_t1_nback.csv","C","left","Pretarget",0,20,20,20,714.246226164808,716.248193323018,"left",1,2,0.50997485874268,"C02N10","2021_Oct_01_1339","t1_Paradigm","2021.1.4",60.0129567845193,NA
"150","C02N10_t1_nback.csv","T","left","Distractor",0,21,21,21,717.745550716078,719.746689884181,"left",1,2,0.499205854508546,"C02N10","2021_Oct_01_1339","t1_Paradigm","2021.1.4",60.0129567845193,NA
"151","C02N10_t1_nback.csv","C","right","Target",0,22,22,22,721.245602525611,723.247699287852,"right",1,2,0.550121952901463,"C02N10","2021_Oct_01_1339","t1_Paradigm","2021.1.4",60.0129567845193,NA
"152","C02N10_t1_nback.csv","F","left","Pretarget",0,23,23,23,724.745481422834,726.746325132242,"left",1,2,0.507544462363512,"C02N10","2021_Oct_01_1339","t1_Paradigm","2021.1.4",60.0129567845193,NA
"153","C02N10_t1_nback.csv","C","right","Target",0,24,24,24,728.245372831338,730.24760240563,"right",1,2,0.590379402967301,"C02N10","2021_Oct_01_1339","t1_Paradigm","2021.1.4",60.0129567845193,NA
"154","C02N10_t1_nback.csv","F","right","Target",0,25,25,25,731.745911618392,733.758421615385,"right",1,2,0.919728267826031,"C02N10","2021_Oct_01_1339","t1_Paradigm","2021.1.4",60.0129567845193,NA
"155","C02N10_t1_nback.csv","H","left","Distractor",0,26,26,26,735.245380209785,737.246457783893,"left",1,2,0.567476702552995,"C02N10","2021_Oct_01_1339","t1_Paradigm","2021.1.4",60.0129567845193,NA
"156","C02N10_t1_nback.csv","H","left","Lure",0,27,27,27,738.745484630855,740.745519919081,"left",1,2,0.508333635421877,"C02N10","2021_Oct_01_1339","t1_Paradigm","2021.1.4",60.0129567845193,NA
"157","C02N10_t1_nback.csv","P","left","Distractor",0,28,28,28,742.245460731101,744.246494355328,"left",1,2,0.735422674353686,"C02N10","2021_Oct_01_1339","t1_Paradigm","2021.1.4",60.0129567845193,NA
"158","C02N10_t1_nback.csv","G","left","Pretarget",0,29,29,29,745.745412771194,747.74734175396,"left",1,2,0.578705095331316,"C02N10","2021_Oct_01_1339","t1_Paradigm","2021.1.4",60.0129567845193,NA
"159","C02N10_t1_nback.csv","K","left","Distractor",0,30,30,30,749.245497623338,751.247347688797,"left",1,2,0.694653224205467,"C02N10","2021_Oct_01_1339","t1_Paradigm","2021.1.4",60.0129567845193,NA
"160","C02N10_t1_nback.csv","G","right","Target",0,31,31,31,752.745548470464,754.74726379906,"right",1,2,0.506590717849576,"C02N10","2021_Oct_01_1339","t1_Paradigm","2021.1.4",60.0129567845193,NA
"161","C02N10_t1_nback.csv","M","left","Pretarget",0,32,32,32,756.245598355184,758.24481623977,"left",1,2,0.561068681474353,"C02N10","2021_Oct_01_1339","t1_Paradigm","2021.1.4",60.0129567845193,NA
"162","C02N10_t1_nback.csv","B","left","Distractor",0,33,33,33,759.745439076963,761.747337904335,"left",1,2,0.546631305724986,"C02N10","2021_Oct_01_1339","t1_Paradigm","2021.1.4",60.0129567845193,NA
"163","C02N10_t1_nback.csv","M","right","Target",0,34,34,34,763.245954766268,765.247297964479,"right",1,2,0.518666990462407,"C02N10","2021_Oct_01_1339","t1_Paradigm","2021.1.4",60.0129567845193,NA
"164","C02N10_t1_nback.csv","M","left","Lure",0,35,35,35,766.74536850051,768.745510295019,"left",1,2,1.27637867089834,"C02N10","2021_Oct_01_1339","t1_Paradigm","2021.1.4",60.0129567845193,NA
"165","C02N10_t1_nback.csv","T","left","Distractor",0,36,36,36,770.245880340191,772.246881563409,"left",1,2,0.70308807267611,"C02N10","2021_Oct_01_1339","t1_Paradigm","2021.1.4",60.0129567845193,NA
"166","C02N10_t1_nback.csv","F","left","Distractor",0,37,37,37,773.745444209795,775.746532691173,"left",1,2,0.547537250733512,"C02N10","2021_Oct_01_1339","t1_Paradigm","2021.1.4",60.0129567845193,NA
"167","C02N10_t1_nback.csv","X","left","Distractor",0,38,38,38,777.245377643369,779.247636089846,"left",1,2,0.534340737337516,"C02N10","2021_Oct_01_1339","t1_Paradigm","2021.1.4",60.0129567845193,NA
"168","C02N10_t1_nback.csv","C","left","Distractor",0,39,39,39,780.745281242351,782.745544300037,"left",1,2,0.460358329481096,"C02N10","2021_Oct_01_1339","t1_Paradigm","2021.1.4",60.0129567845193,NA
"169","C02N10_t1_nback.csv","R","left","Distractor",0,40,40,40,784.24610169361,786.247806114936,"left",1,2,0.494157392546185,"C02N10","2021_Oct_01_1339","t1_Paradigm","2021.1.4",60.0129567845193,NA
"170","C02N10_t1_nback.csv","B","left","Pretarget",0,41,41,41,787.74554462084,789.747564069785,"left",1,2,0.578432092781441,"C02N10","2021_Oct_01_1339","t1_Paradigm","2021.1.4",60.0129567845193,NA
"171","C02N10_t1_nback.csv","H","left","Distractor",0,42,42,42,791.245393683472,793.246416079625,"left",1,2,0.471409639524609,"C02N10","2021_Oct_01_1339","t1_Paradigm","2021.1.4",60.0129567845193,NA
"172","C02N10_t1_nback.csv","B","right","Target",0,43,43,43,794.745466024336,796.747523327924,"right",1,2,0.394828735010378,"C02N10","2021_Oct_01_1339","t1_Paradigm","2021.1.4",60.0129567845193,NA
"173","C02N10_t1_nback.csv","W","left","Pretarget",0,44,44,44,798.246257924212,800.247854876849,"left",1,2,0.590012405416019,"C02N10","2021_Oct_01_1339","t1_Paradigm","2021.1.4",60.0129567845193,NA
"174","C02N10_t1_nback.csv","L","left","Pretarget",0,45,45,45,801.745709513096,803.747187768972,"left",1,2,0.690668862664097,"C02N10","2021_Oct_01_1339","t1_Paradigm","2021.1.4",60.0129567845193,NA
"175","C02N10_t1_nback.csv","W","right","Target",0,46,46,46,805.245773833909,807.2472389369,"right",1,2,0.998731548668729,"C02N10","2021_Oct_01_1339","t1_Paradigm","2021.1.4",60.0129567845193,NA
"176","C02N10_t1_nback.csv","L","right","Target",0,47,47,47,808.745450946639,810.747302295306,"right",1,2,0.778709137437545,"C02N10","2021_Oct_01_1339","t1_Paradigm","2021.1.4",60.0129567845193,NA
"177","C02N10_t1_nback.csv","W","right","Target",0,48,48,48,812.245225583194,814.247264280263,"right",1,2,0.750533092817022,"C02N10","2021_Oct_01_1339","t1_Paradigm","2021.1.4",60.0129567845193,NA
"178","C02N10_t1_nback.csv","X","left","Distractor",0,49,49,49,815.745351818803,817.745873763749,"left",1,2,0.580144213357016,"C02N10","2021_Oct_01_1339","t1_Paradigm","2021.1.4",60.0129567845193,NA
"179","C02N10_t1_nback.csv","R","left","Distractor",0,50,50,50,819.245449182227,821.247169322854,"left",1,2,0.582746880440936,"C02N10","2021_Oct_01_1339","t1_Paradigm","2021.1.4",60.0129567845193,NA
"180","C02N10_t1_nback.csv","V","left","Pretarget",0,51,51,51,822.745413091996,824.747565994597,"left",1,2,0.570269284454298,"C02N10","2021_Oct_01_1339","t1_Paradigm","2021.1.4",60.0129567845193,NA
"181","C02N10_t1_nback.csv","Z","left","Distractor",0,52,52,52,826.245433462926,828.246727899224,"left",1,2,0.463326390107795,"C02N10","2021_Oct_01_1339","t1_Paradigm","2021.1.4",60.0129567845193,NA
"182","C02N10_t1_nback.csv","V","right","Target",0,53,53,53,829.746324811441,831.747539688829,"right",1,2,0.370294435335381,"C02N10","2021_Oct_01_1339","t1_Paradigm","2021.1.4",60.0129567845193,NA
"183","C02N10_t1_nback.csv","V","left","Lure",0,54,54,54,833.245380209785,835.245411006783,"left",1,2,1.11287612838169,"C02N10","2021_Oct_01_1339","t1_Paradigm","2021.1.4",60.0129567845193,NA
"184","C02N10_t1_nback.csv","N","left","Distractor",0,55,55,55,836.745514786248,838.747460771522,"left",1,2,0.730600057038828,"C02N10","2021_Oct_01_1339","t1_Paradigm","2021.1.4",60.0129567845193,NA
"185","C02N10_t1_nback.csv","B","left","Distractor",0,56,56,56,840.245422876459,842.247186646166,"left",1,2,0.590675182464111,"C02N10","2021_Oct_01_1339","t1_Paradigm","2021.1.4",60.0129567845193,NA
"186","C02N10_t1_nback.csv","V","left","Lure",0,57,57,57,843.745502916572,845.74764747832,"left",1,2,0.514550458473423,"C02N10","2021_Oct_01_1339","t1_Paradigm","2021.1.4",60.0129567845193,NA
"187","C02N10_t1_nback.csv","J","left","Distractor",0,58,58,58,847.246293212438,849.247228671235,"left",1,2,0.438543148036842,"C02N10","2021_Oct_01_1339","t1_Paradigm","2021.1.4",60.0129567845193,NA
"188","C02N10_t1_nback.csv","H","left","Distractor",0,59,59,59,850.745310114536,852.745483347647,"left",1,2,0.604330121997918,"C02N10","2021_Oct_01_1339","t1_Paradigm","2021.1.4",60.0129567845193,NA
"189","C02N10_t1_nback.csv","X","left","Pretarget",0,60,60,60,854.245312520551,856.247709553517,"left",1,2,0.67018051852574,"C02N10","2021_Oct_01_1339","t1_Paradigm","2021.1.4",60.0129567845193,NA
"190","C02N10_t1_nback.csv","P","left","Distractor",0,61,61,61,857.746025182319,859.747634325435,"left",1,2,0.434304390464604,"C02N10","2021_Oct_01_1339","t1_Paradigm","2021.1.4",60.0129567845193,NA
"191","C02N10_t1_nback.csv","X","right","Target",0,62,62,62,861.246121262536,863.247209743913,"right",1,2,0.615011226467686,"C02N10","2021_Oct_01_1339","t1_Paradigm","2021.1.4",60.0129567845193,NA
"192","C02N10_t1_nback.csv","Q","left","Distractor",0,63,63,63,864.746324490638,866.747642024684,"left",1,2,0.442352993260101,"C02N10","2021_Oct_01_1339","t1_Paradigm","2021.1.4",60.0129567845193,NA
"193","C02N10_t1_nback.csv","B","left","Pretarget",0,0,0,0,886.112793361451,888.096226501651,"left",1,2,0.949601996929232,"C02N10","2021_Oct_01_1339","t1_Paradigm","2021.1.4",60.0129567845193,NA
"194","C02N10_t1_nback.csv","F","left","Distractor",0,1,1,1,889.595492025342,891.596507363851,"left",1,2,0.473341509508828,"C02N10","2021_Oct_01_1339","t1_Paradigm","2021.1.4",60.0129567845193,NA
"195","C02N10_t1_nback.csv","B","right","Target",0,2,2,2,893.09548384489,895.096290662062,"right",1,2,0.42980834964419,"C02N10","2021_Oct_01_1339","t1_Paradigm","2021.1.4",60.0129567845193,NA
"196","C02N10_t1_nback.csv","V","left","Distractor",0,3,3,3,896.595170902484,898.594694832232,"left",1,2,0.739228669951444,"C02N10","2021_Oct_01_1339","t1_Paradigm","2021.1.4",60.0129567845193,NA
"197","C02N10_t1_nback.csv","G","left","Pretarget",0,4,4,4,900.095858541692,902.097263975501,"left",1,2,0.772618389592935,"C02N10","2021_Oct_01_1339","t1_Paradigm","2021.1.4",60.0129567845193,NA
"198","C02N10_t1_nback.csv","B","left","Lure",0,5,5,5,903.595465398771,905.597146722349,"left",1,2,0.920714734150351,"C02N10","2021_Oct_01_1339","t1_Paradigm","2021.1.4",60.0129567845193,NA
"199","C02N10_t1_nback.csv","G","right","Target",0,6,6,6,907.095419684479,909.097061870206,"None",0,2,NA,"C02N10","2021_Oct_01_1339","t1_Paradigm","2021.1.4",60.0129567845193,NA
"200","C02N10_t1_nback.csv","Y","left","Pretarget",0,7,7,7,910.595395143121,912.597696897876,"left",1,2,0.496409102181133,"C02N10","2021_Oct_01_1339","t1_Paradigm","2021.1.4",60.0129567845193,NA
"201","C02N10_t1_nback.csv","P","left","Distractor",0,8,8,8,914.096183834977,916.097267183522,"left",1,2,0.612824960452599,"C02N10","2021_Oct_01_1339","t1_Paradigm","2021.1.4",60.0129567845193,NA
"202","C02N10_t1_nback.csv","Y","right","Target",0,9,9,9,917.596417860077,919.597505379048,"right",1,2,0.42445223850882,"C02N10","2021_Oct_01_1339","t1_Paradigm","2021.1.4",60.0129567845193,NA
"203","C02N10_t1_nback.csv","X","left","Distractor",0,10,10,10,921.095493468952,923.096588045568,"left",1,2,0.461746760781352,"C02N10","2021_Oct_01_1339","t1_Paradigm","2021.1.4",60.0129567845193,NA
"204","C02N10_t1_nback.csv","Y","right","Target",0,11,11,11,924.595442942627,926.596419143285,"right",1,2,0.529623984702084,"C02N10","2021_Oct_01_1339","t1_Paradigm","2021.1.4",60.0129567845193,NA
"205","C02N10_t1_nback.csv","N","left","Distractor",0,12,12,12,928.095422892499,930.097609479316,"left",1,2,0.484403406019737,"C02N10","2021_Oct_01_1339","t1_Paradigm","2021.1.4",60.0129567845193,NA
"206","C02N10_t1_nback.csv","Y","right","Target",0,13,13,13,931.596033860015,933.59762728383,"right",1,2,0.520314309022069,"C02N10","2021_Oct_01_1339","t1_Paradigm","2021.1.4",60.0129567845193,NA
"207","C02N10_t1_nback.csv","Y","left","Lure",0,14,14,14,935.096064496612,937.095686912591,"left",1,2,0.846605930282749,"C02N10","2021_Oct_01_1339","t1_Paradigm","2021.1.4",60.0129567845193,NA
"208","C02N10_t1_nback.csv","K","left","Distractor",0,15,15,15,938.596221529218,940.597667384087,"left",1,2,0.640240383396304,"C02N10","2021_Oct_01_1339","t1_Paradigm","2021.1.4",60.0129567845193,NA
"209","C02N10_t1_nback.csv","T","left","Pretarget",0,16,16,16,942.096073158267,944.097749349013,"left",1,2,0.580319050477556,"C02N10","2021_Oct_01_1339","t1_Paradigm","2021.1.4",60.0129567845193,NA
"210","C02N10_t1_nback.csv","J","left","Distractor",0,17,17,17,945.596074281075,947.597139985506,"left",1,2,0.504784923073203,"C02N10","2021_Oct_01_1339","t1_Paradigm","2021.1.4",60.0129567845193,NA
"211","C02N10_t1_nback.csv","T","right","Target",0,18,18,18,949.096254411429,951.097769880344,"right",1,2,0.780395273046452,"C02N10","2021_Oct_01_1339","t1_Paradigm","2021.1.4",60.0129567845193,NA
"212","C02N10_t1_nback.csv","S","left","Pretarget",0,19,19,19,952.595296656889,954.595622591779,"left",1,2,0.786330752694084,"C02N10","2021_Oct_01_1339","t1_Paradigm","2021.1.4",60.0129567845193,NA
"213","C02N10_t1_nback.csv","R","left","Distractor",0,20,20,20,956.095457539121,958.096400055563,"None",0,2,NA,"C02N10","2021_Oct_01_1339","t1_Paradigm","2021.1.4",60.0129567845193,NA
"214","C02N10_t1_nback.csv","S","right","Target",0,21,21,21,959.595400275954,961.597570822668,"right",1,2,0.984374694235157,"C02N10","2021_Oct_01_1339","t1_Paradigm","2021.1.4",60.0129567845193,NA
"215","C02N10_t1_nback.csv","Q","left","Distractor",0,22,22,22,963.096264997897,965.097172867717,"left",1,2,0.460775692956304,"C02N10","2021_Oct_01_1339","t1_Paradigm","2021.1.4",60.0129567845193,NA
"216","C02N10_t1_nback.csv","D","left","Distractor",0,23,23,23,966.595315905013,968.595550411316,"left",1,2,0.46639871140269,"C02N10","2021_Oct_01_1339","t1_Paradigm","2021.1.4",60.0129567845193,NA
"217","C02N10_t1_nback.csv","F","left","Distractor",0,24,24,24,970.095361940108,972.094865338525,"None",0,2,NA,"C02N10","2021_Oct_01_1339","t1_Paradigm","2021.1.4",60.0129567845193,NA
"218","C02N10_t1_nback.csv","Z","left","Distractor",0,25,25,25,973.595672316098,975.608537440969,"left",1,2,0.557442976632956,"C02N10","2021_Oct_01_1339","t1_Paradigm","2021.1.4",60.0129567845193,NA
"219","C02N10_t1_nback.csv","P","left","Distractor",0,26,26,26,977.095465238371,979.097435604601,"left",1,2,0.492549532639714,"C02N10","2021_Oct_01_1339","t1_Paradigm","2021.1.4",60.0129567845193,NA
"220","C02N10_t1_nback.csv","H","left","Distractor",0,27,27,27,980.595381990237,982.597201579501,"left",1,2,0.432690435319273,"C02N10","2021_Oct_01_1339","t1_Paradigm","2021.1.4",60.0129567845193,NA
"221","C02N10_t1_nback.csv","Z","left","Pretarget",0,28,28,28,984.095427704529,986.096538642051,"left",1,2,0.437344310752451,"C02N10","2021_Oct_01_1339","t1_Paradigm","2021.1.4",60.0129567845193,NA
"222","C02N10_t1_nback.csv","J","left","Pretarget",0,29,29,29,987.59560238125,989.596772346349,"left",1,2,0.521081988343212,"C02N10","2021_Oct_01_1339","t1_Paradigm","2021.1.4",60.0129567845193,NA
"223","C02N10_t1_nback.csv","Z","right","Target",0,30,30,30,991.095581689517,993.096727915265,"right",1,2,0.461655332195733,"C02N10","2021_Oct_01_1339","t1_Paradigm","2021.1.4",60.0129567845193,NA
"224","C02N10_t1_nback.csv","J","right","Target",0,31,31,31,994.59547758925,996.597833559552,"right",1,2,0.976100246793067,"C02N10","2021_Oct_01_1339","t1_Paradigm","2021.1.4",60.0129567845193,NA
"225","C02N10_t1_nback.csv","V","left","Pretarget",0,32,32,32,998.096057438966,1000.09758638157,"None",0,2,NA,"C02N10","2021_Oct_01_1339","t1_Paradigm","2021.1.4",60.0129567845193,NA
"226","C02N10_t1_nback.csv","Z","left","Lure",0,33,33,33,1001.59611951416,1003.5973882863,"left",1,2,0.808553994354043,"C02N10","2021_Oct_01_1339","t1_Paradigm","2021.1.4",60.0129567845193,NA
"227","C02N10_t1_nback.csv","V","right","Target",0,34,34,34,1005.09545529351,1007.09724921861,"right",1,2,0.428745853232613,"C02N10","2021_Oct_01_1339","t1_Paradigm","2021.1.4",60.0129567845193,NA
"228","C02N10_t1_nback.csv","X","left","Distractor",0,35,35,35,1008.59539706793,1010.59733118353,"left",1,2,0.624539047545113,"C02N10","2021_Oct_01_1339","t1_Paradigm","2021.1.4",60.0129567845193,NA
"229","C02N10_t1_nback.csv","S","left","Distractor",0,36,36,36,1012.095469088,1014.09767171492,"left",1,2,0.548227295956167,"C02N10","2021_Oct_01_1339","t1_Paradigm","2021.1.4",60.0129567845193,NA
"230","C02N10_t1_nback.csv","Q","left","Distractor",0,37,37,37,1015.59535536367,1017.59606529862,"left",1,2,0.473812767729214,"C02N10","2021_Oct_01_1339","t1_Paradigm","2021.1.4",60.0129567845193,NA
"231","C02N10_t1_nback.csv","P","left","Distractor",0,38,38,38,1019.09591692767,1021.09743367979,"left",1,2,0.39664287063988,"C02N10","2021_Oct_01_1339","t1_Paradigm","2021.1.4",60.0129567845193,NA
"232","C02N10_t1_nback.csv","S","left","Lure",0,39,39,39,1022.59537300778,1024.59563414065,"left",1,2,0.498480521058809,"C02N10","2021_Oct_01_1339","t1_Paradigm","2021.1.4",60.0129567845193,NA
"233","C02N10_t1_nback.csv","K","left","Pretarget",0,40,40,40,1026.09529713809,1028.09715297799,"left",1,2,0.452854448578364,"C02N10","2021_Oct_01_1339","t1_Paradigm","2021.1.4",60.0129567845193,NA
"234","C02N10_t1_nback.csv","L","left","Distractor",0,41,41,41,1029.59616250164,1031.59761284774,"left",1,2,0.440359529280613,"C02N10","2021_Oct_01_1339","t1_Paradigm","2021.1.4",60.0129567845193,NA
"235","C02N10_t1_nback.csv","K","right","Target",0,42,42,42,1033.09640775481,1035.09771983522,"right",1,2,0.364302815326482,"C02N10","2021_Oct_01_1339","t1_Paradigm","2021.1.4",60.0129567845193,NA
"236","C02N10_t1_nback.csv","B","left","Distractor",0,43,43,43,1036.59535985489,1038.59581218579,"left",1,2,0.514260774217291,"C02N10","2021_Oct_01_1339","t1_Paradigm","2021.1.4",60.0129567845193,NA
"237","C02N10_t1_nback.csv","N","left","Distractor",0,44,44,44,1040.09538760427,1042.09587426099,"left",1,2,0.758009705546101,"C02N10","2021_Oct_01_1339","t1_Paradigm","2021.1.4",60.0129567845193,NA
"238","C02N10_t1_nback.csv","S","left","Pretarget",0,45,45,45,1043.59531590501,1045.59567456171,"left",1,2,0.474292366803638,"C02N10","2021_Oct_01_1339","t1_Paradigm","2021.1.4",60.0129567845193,NA
"239","C02N10_t1_nback.csv","Z","left","Distractor",0,46,46,46,1047.09597370963,1049.09766177005,"left",1,2,0.476259845816458,"C02N10","2021_Oct_01_1339","t1_Paradigm","2021.1.4",60.0129567845193,NA
"240","C02N10_t1_nback.csv","S","right","Target",0,47,47,47,1050.59603289761,1052.59766193045,"right",1,2,0.704247130505792,"C02N10","2021_Oct_01_1339","t1_Paradigm","2021.1.4",60.0129567845193,NA
"241","C02N10_t1_nback.csv","C","left","Distractor",0,48,48,48,1054.09560318325,1056.09724280257,"left",1,2,0.46878708271197,"C02N10","2021_Oct_01_1339","t1_Paradigm","2021.1.4",60.0129567845193,NA
"242","C02N10_t1_nback.csv","T","left","Pretarget",0,49,49,49,1057.59603835124,1059.59766513847,"left",1,2,0.552200750227712,"C02N10","2021_Oct_01_1339","t1_Paradigm","2021.1.4",60.0129567845193,NA
"243","C02N10_t1_nback.csv","S","left","Lure",0,50,50,50,1061.09544406544,1063.09769481266,"left",1,2,0.508279740676699,"C02N10","2021_Oct_01_1339","t1_Paradigm","2021.1.4",60.0129567845193,NA
"244","C02N10_t1_nback.csv","T","right","Target",0,51,51,51,1064.59624494777,1066.59764749436,"right",1,2,0.464395944163698,"C02N10","2021_Oct_01_1339","t1_Paradigm","2021.1.4",60.0129567845193,NA
"245","C02N10_t1_nback.csv","N","left","Pretarget",0,52,52,52,1068.09548416569,1070.09647544405,"left",1,2,0.405421298112742,"C02N10","2021_Oct_01_1339","t1_Paradigm","2021.1.4",60.0129567845193,NA
"246","C02N10_t1_nback.csv","B","left","Distractor",0,53,53,53,1071.59541599525,1073.59706203061,"left",1,2,0.520906509619635,"C02N10","2021_Oct_01_1339","t1_Paradigm","2021.1.4",60.0129567845193,NA
"247","C02N10_t1_nback.csv","N","right","Target",0,54,54,54,1075.09550630103,1077.0950013586,"right",1,2,0.671017811892852,"C02N10","2021_Oct_01_1339","t1_Paradigm","2021.1.4",60.0129567845193,NA
"248","C02N10_t1_nback.csv","N","left","Lure",0,55,55,55,1078.59547726845,1080.59563446146,"left",1,2,0.994254435167932,"C02N10","2021_Oct_01_1339","t1_Paradigm","2021.1.4",60.0129567845193,NA
"249","C02N10_t1_nback.csv","X","left","Distractor",0,56,56,56,1082.095313499,1084.09728546924,"left",1,2,0.708687030966757,"C02N10","2021_Oct_01_1339","t1_Paradigm","2021.1.4",60.0129567845193,NA
"250","C02N10_t1_nback.csv","W","left","Distractor",0,57,57,57,1085.59535279725,1087.59714030631,"left",1,2,0.520757015860909,"C02N10","2021_Oct_01_1339","t1_Paradigm","2021.1.4",60.0129567845193,NA
"251","C02N10_t1_nback.csv","S","left","Distractor",0,58,58,58,1089.09544278223,1091.09638241145,"left",1,2,0.445654367223142,"C02N10","2021_Oct_01_1339","t1_Paradigm","2021.1.4",60.0129567845193,NA
"252","C02N10_t1_nback.csv","L","left","Distractor",0,59,59,59,1092.59540027595,1094.59655772977,"left",1,2,0.481435986997894,"C02N10","2021_Oct_01_1339","t1_Paradigm","2021.1.4",60.0129567845193,NA
"253","C02N10_t1_nback.csv","K","left","Pretarget",0,60,60,60,1096.096062251,1098.09732492789,"left",1,2,0.436526907112238,"C02N10","2021_Oct_01_1339","t1_Paradigm","2021.1.4",60.0129567845193,NA
"254","C02N10_t1_nback.csv","V","left","Pretarget",0,61,61,61,1099.59534670201,1101.59719291785,"left",1,2,0.520716594802252,"C02N10","2021_Oct_01_1339","t1_Paradigm","2021.1.4",60.0129567845193,NA
"255","C02N10_t1_nback.csv","K","right","Target",0,62,62,62,1103.09538311304,1105.09719211584,"right",1,2,0.460787241830076,"C02N10","2021_Oct_01_1339","t1_Paradigm","2021.1.4",60.0129567845193,NA
"256","C02N10_t1_nback.csv","V","right","Target",0,63,63,63,1106.59541471205,1108.59682880751,"right",1,2,0.977037630402265,"C02N10","2021_Oct_01_1339","t1_Paradigm","2021.1.4",60.0129567845193,NA
"257","C02N10_t1_nback.csv","R","left","Distractor",0,0,0,0,1581.89375549173,1583.87995041683,"left",1,3,0.478104136839647,"C02N10","2021_Oct_01_1339","t1_Paradigm","2021.1.4",60.0129567845193,NA
"258","C02N10_t1_nback.csv","P","left","Lure",0,1,1,1,1585.37878959459,1587.37958871252,"left",1,3,0.338396445255967,"C02N10","2021_Oct_01_1339","t1_Paradigm","2021.1.4",60.0129567845193,NA
"259","C02N10_t1_nback.csv","V","left","Distractor",0,2,2,2,1588.87869896801,1590.88079412624,"left",1,3,0.51719130100264,"C02N10","2021_Oct_01_1339","t1_Paradigm","2021.1.4",60.0129567845193,NA
"260","C02N10_t1_nback.csv","P","left","Pretarget",0,3,3,3,1592.3787745169,1594.37974462232,"left",1,3,1.00236302794747,"C02N10","2021_Oct_01_1339","t1_Paradigm","2021.1.4",60.0129567845193,NA
"261","C02N10_t1_nback.csv","Z","left","Distractor",0,4,4,4,1595.8785571735,1597.88004441184,"None",0,3,NA,"C02N10","2021_Oct_01_1339","t1_Paradigm","2021.1.4",60.0129567845193,NA
"262","C02N10_t1_nback.csv","L","left","Pretarget",0,5,5,5,1599.37865485773,1601.38102975535,"left",1,3,0.784998461754185,"C02N10","2021_Oct_01_1339","t1_Paradigm","2021.1.4",60.0129567845193,NA
"263","C02N10_t1_nback.csv","P","right","Target",0,6,6,6,1602.87877146928,1604.88017529908,"left",0,3,0.821734788448339,"C02N10","2021_Oct_01_1339","t1_Paradigm","2021.1.4",60.0129567845193,NA
"264","C02N10_t1_nback.csv","S","left","Distractor",0,7,7,7,1606.37851595044,1608.37952936414,"left",1,3,0.794412077299057,"C02N10","2021_Oct_01_1339","t1_Paradigm","2021.1.4",60.0129567845193,NA
"265","C02N10_t1_nback.csv","L","right","Target",0,8,8,8,1609.87874227629,1611.8797733341,"right",1,3,0.718268105185416,"C02N10","2021_Oct_01_1339","t1_Paradigm","2021.1.4",60.0129567845193,NA
"266","C02N10_t1_nback.csv","D","left","Distractor",0,9,9,9,1613.37955053707,1615.37929357462,"left",1,3,0.594662431223696,"C02N10","2021_Oct_01_1339","t1_Paradigm","2021.1.4",60.0129567845193,NA
"267","C02N10_t1_nback.csv","G","left","Distractor",0,10,10,10,1616.87870923368,1618.88080888314,"left",1,3,0.645353326573058,"C02N10","2021_Oct_01_1339","t1_Paradigm","2021.1.4",60.0129567845193,NA
"268","C02N10_t1_nback.csv","M","left","Pretarget",0,11,11,11,1620.37880884272,1622.37891887782,"left",1,3,0.763188413143325,"C02N10","2021_Oct_01_1339","t1_Paradigm","2021.1.4",60.0129567845193,NA
"269","C02N10_t1_nback.csv","Y","left","Distractor",0,12,12,12,1623.87880194547,1625.87972328898,"left",1,3,0.558273212354834,"C02N10","2021_Oct_01_1339","t1_Paradigm","2021.1.4",60.0129567845193,NA
"270","C02N10_t1_nback.csv","V","left","Distractor",0,13,13,13,1627.37880916352,1629.38074809115,"left",1,3,0.593276887142565,"C02N10","2021_Oct_01_1339","t1_Paradigm","2021.1.4",60.0129567845193,NA
"271","C02N10_t1_nback.csv","M","right","Target",0,14,14,14,1630.87957956966,1632.88053940941,"right",1,3,0.597866281362258,"C02N10","2021_Oct_01_1339","t1_Paradigm","2021.1.4",60.0129567845193,NA
"272","C02N10_t1_nback.csv","S","left","Pretarget",0,15,15,15,1634.37861732389,1636.38016230659,"left",1,3,0.633763069074121,"C02N10","2021_Oct_01_1339","t1_Paradigm","2021.1.4",60.0129567845193,NA
"273","C02N10_t1_nback.csv","Q","left","Distractor",0,16,16,16,1637.87876152441,1639.88019198078,"left",1,3,0.525951121956496,"C02N10","2021_Oct_01_1339","t1_Paradigm","2021.1.4",60.0129567845193,NA
"274","C02N10_t1_nback.csv","R","left","Pretarget",0,17,17,17,1641.37888551441,1643.38015524895,"left",1,3,0.914032106511513,"C02N10","2021_Oct_01_1339","t1_Paradigm","2021.1.4",60.0129567845193,NA
"275","C02N10_t1_nback.csv","S","right","Target",0,18,18,18,1644.87878462216,1646.8810838105,"None",0,3,NA,"C02N10","2021_Oct_01_1339","t1_Paradigm","2021.1.4",60.0129567845193,NA
"276","C02N10_t1_nback.csv","F","left","Distractor",0,19,19,19,1648.37862053191,1650.37891631141,"left",1,3,0.555033753188582,"C02N10","2021_Oct_01_1339","t1_Paradigm","2021.1.4",60.0129567845193,NA
"277","C02N10_t1_nback.csv","R","right","Target",0,20,20,20,1651.8787127625,1653.87895047682,"left",0,3,0.495064941565033,"C02N10","2021_Oct_01_1339","t1_Paradigm","2021.1.4",60.0129567845193,NA
"278","C02N10_t1_nback.csv","P","left","Distractor",0,21,21,21,1655.37855765471,1657.38080038188,"left",1,3,0.465197307700691,"C02N10","2021_Oct_01_1339","t1_Paradigm","2021.1.4",60.0129567845193,NA
"279","C02N10_t1_nback.csv","L","left","Distractor",0,22,22,22,1658.8788375545,1660.87975472758,"left",1,3,0.630435710144411,"C02N10","2021_Oct_01_1339","t1_Paradigm","2021.1.4",60.0129567845193,NA
"280","C02N10_t1_nback.csv","R","right","Target",0,23,23,23,1662.37905393549,1664.38098388066,"left",0,3,0.441016531892274,"C02N10","2021_Oct_01_1339","t1_Paradigm","2021.1.4",60.0129567845193,NA
"281","C02N10_t1_nback.csv","H","left","Pretarget",0,24,24,24,1665.87961902831,1667.8812236802,"left",1,3,0.412938331899568,"C02N10","2021_Oct_01_1339","t1_Paradigm","2021.1.4",60.0129567845193,NA
"282","C02N10_t1_nback.csv","G","left","Pretarget",0,25,25,25,1669.37859486774,1671.37916364979,"left",1,3,0.466799393170731,"C02N10","2021_Oct_01_1339","t1_Paradigm","2021.1.4",60.0129567845193,NA
"283","C02N10_t1_nback.csv","T","left","Distractor",0,26,26,26,1672.87854979506,1674.87885840663,"left",1,3,0.455089797307664,"C02N10","2021_Oct_01_1339","t1_Paradigm","2021.1.4",60.0129567845193,NA
"284","C02N10_t1_nback.csv","H","right","Target",0,27,27,27,1676.37862630635,1678.38007248202,"left",0,3,0.553932118926241,"C02N10","2021_Oct_01_1339","t1_Paradigm","2021.1.4",60.0129567845193,NA
"285","C02N10_t1_nback.csv","G","right","Target",0,28,28,28,1679.879540111,1681.88059683298,"left",0,3,1.06936414145184,"C02N10","2021_Oct_01_1339","t1_Paradigm","2021.1.4",60.0129567845193,NA
"286","C02N10_t1_nback.csv","D","left","Distractor",0,29,29,29,1683.37857946925,1685.37906035153,"left",1,3,0.579018518940757,"C02N10","2021_Oct_01_1339","t1_Paradigm","2021.1.4",60.0129567845193,NA
"287","C02N10_t1_nback.csv","N","left","Pretarget",0,30,30,30,1686.87863352439,1688.87887252192,"left",1,3,0.503199840111847,"C02N10","2021_Oct_01_1339","t1_Paradigm","2021.1.4",60.0129567845193,NA
"288","C02N10_t1_nback.csv","V","left","Distractor",0,31,31,31,1690.37966859223,1692.38097233179,"left",1,3,0.408972897679632,"C02N10","2021_Oct_01_1339","t1_Paradigm","2021.1.4",60.0129567845193,NA
"289","C02N10_t1_nback.csv","R","left","Distractor",0,32,32,32,1693.87871821613,1695.8788375545,"left",1,3,0.543090613427921,"C02N10","2021_Oct_01_1339","t1_Paradigm","2021.1.4",60.0129567845193,NA
"290","C02N10_t1_nback.csv","N","right","Target",0,33,33,33,1697.37948798067,1699.38102013129,"left",0,3,0.513104282804306,"C02N10","2021_Oct_01_1339","t1_Paradigm","2021.1.4",60.0129567845193,NA
"291","C02N10_t1_nback.csv","Z","left","Distractor",0,34,34,34,1700.87856294794,1702.87893411592,"left",1,3,0.439034295985948,"C02N10","2021_Oct_01_1339","t1_Paradigm","2021.1.4",60.0129567845193,NA
"292","C02N10_t1_nback.csv","N","left","Lure",0,35,35,35,1704.3786028878,1706.37903404576,"left",1,3,0.459022509718125,"C02N10","2021_Oct_01_1339","t1_Paradigm","2021.1.4",60.0129567845193,NA
"293","C02N10_t1_nback.csv","Y","left","Pretarget",0,36,36,36,1707.87861299306,1709.88076397085,"left",1,3,0.461413447445011,"C02N10","2021_Oct_01_1339","t1_Paradigm","2021.1.4",60.0129567845193,NA
"294","C02N10_t1_nback.csv","Y","left","Lure",0,37,37,37,1711.37894454199,1713.37906227634,"left",1,3,0.403067573424778,"C02N10","2021_Oct_01_1339","t1_Paradigm","2021.1.4",60.0129567845193,NA
"295","C02N10_t1_nback.csv","B","left","Distractor",0,38,38,38,1714.87922604579,1716.87933287288,"left",1,3,0.550704529436189,"C02N10","2021_Oct_01_1339","t1_Paradigm","2021.1.4",60.0129567845193,NA
"296","C02N10_t1_nback.csv","Y","right","Target",0,39,39,39,1718.37864234645,1720.37928587537,"right",1,3,0.394718058300896,"C02N10","2021_Oct_01_1339","t1_Paradigm","2021.1.4",60.0129567845193,NA
"297","C02N10_t1_nback.csv","J","left","Distractor",0,40,40,40,1721.87920006082,1723.88083743452,"left",1,3,0.509114467627114,"C02N10","2021_Oct_01_1339","t1_Paradigm","2021.1.4",60.0129567845193,NA
"298","C02N10_t1_nback.csv","X","left","Distractor",0,41,41,41,1725.37874821113,1727.38106215636,"left",1,3,0.529133478357835,"C02N10","2021_Oct_01_1339","t1_Paradigm","2021.1.4",60.0129567845193,NA
"299","C02N10_t1_nback.csv","W","left","Pretarget",0,42,42,42,1728.87886674749,1730.88064014126,"left",1,3,0.437356180427741,"C02N10","2021_Oct_01_1339","t1_Paradigm","2021.1.4",60.0129567845193,NA
"300","C02N10_t1_nback.csv","S","left","Pretarget",0,43,43,43,1732.37881846678,1734.37980717872,"left",1,3,0.442220502010059,"C02N10","2021_Oct_01_1339","t1_Paradigm","2021.1.4",60.0129567845193,NA
"301","C02N10_t1_nback.csv","R","left","Distractor",0,44,44,44,1735.87876601564,1737.87977429651,"left",1,3,0.430434876059735,"C02N10","2021_Oct_01_1339","t1_Paradigm","2021.1.4",60.0129567845193,NA
"302","C02N10_t1_nback.csv","W","right","Target",0,45,45,45,1739.37881172993,1741.38056395077,"left",0,3,0.481655415604109,"C02N10","2021_Oct_01_1339","t1_Paradigm","2021.1.4",60.0129567845193,NA
"303","C02N10_t1_nback.csv","S","right","Target",0,46,46,46,1742.87881670237,1744.87991737422,"left",0,3,0.598237449340559,"C02N10","2021_Oct_01_1339","t1_Paradigm","2021.1.4",60.0129567845193,NA
"304","C02N10_t1_nback.csv","D","left","Distractor",0,47,47,47,1746.37873569985,1748.38037563996,"left",1,3,0.473627344140368,"C02N10","2021_Oct_01_1339","t1_Paradigm","2021.1.4",60.0129567845193,NA
"305","C02N10_t1_nback.csv","T","left","Distractor",0,48,48,48,1749.87889529887,1751.88117844711,"left",1,3,0.429066655288807,"C02N10","2021_Oct_01_1339","t1_Paradigm","2021.1.4",60.0129567845193,NA
"306","C02N10_t1_nback.csv","S","right","Target",0,49,49,49,1753.3787443615,1755.37982257721,"right",1,3,0.562288691695358,"C02N10","2021_Oct_01_1339","t1_Paradigm","2021.1.4",60.0129567845193,NA
"307","C02N10_t1_nback.csv","K","left","Distractor",0,50,50,50,1756.87888631641,1758.87982754965,"left",1,3,0.470170381179742,"C02N10","2021_Oct_01_1339","t1_Paradigm","2021.1.4",60.0129567845193,NA
"308","C02N10_t1_nback.csv","S","left","Lure",0,51,51,51,1760.37872030135,1762.37987069752,"right",0,3,0.714300425352121,"C02N10","2021_Oct_01_1339","t1_Paradigm","2021.1.4",60.0129567845193,NA
"309","C02N10_t1_nback.csv","T","left","Pretarget",0,52,52,52,1763.8795869481,1765.88101130923,"left",1,3,0.605032999304058,"C02N10","2021_Oct_01_1339","t1_Paradigm","2021.1.4",60.0129567845193,NA
"310","C02N10_t1_nback.csv","V","left","Distractor",0,53,53,53,1767.3795858253,1769.38049337431,"left",1,3,0.401618510535627,"C02N10","2021_Oct_01_1339","t1_Paradigm","2021.1.4",60.0129567845193,NA
"311","C02N10_t1_nback.csv","B","left","Distractor",0,54,54,54,1770.8789466272,1772.88021283292,"left",1,3,0.485890965155704,"C02N10","2021_Oct_01_1339","t1_Paradigm","2021.1.4",60.0129567845193,NA
"312","C02N10_t1_nback.csv","T","right","Target",0,55,55,55,1774.37882071239,1776.38035799585,"right",1,3,0.601763705545636,"C02N10","2021_Oct_01_1339","t1_Paradigm","2021.1.4",60.0129567845193,NA
"313","C02N10_t1_nback.csv","Y","left","Pretarget",0,56,56,56,1777.87888984524,1779.88103184057,"left",1,3,0.588956645847247,"C02N10","2021_Oct_01_1339","t1_Paradigm","2021.1.4",60.0129567845193,NA
"314","C02N10_t1_nback.csv","T","left","Lure",0,57,57,57,1781.37902313849,1783.3808347077,"None",0,3,NA,"C02N10","2021_Oct_01_1339","t1_Paradigm","2021.1.4",60.0129567845193,NA
"315","C02N10_t1_nback.csv","P","left","Pretarget",0,58,58,58,1784.87871147929,1786.87896651693,"left",1,3,0.663157519904416,"C02N10","2021_Oct_01_1339","t1_Paradigm","2021.1.4",60.0129567845193,NA
"316","C02N10_t1_nback.csv","Y","right","Target",0,59,59,59,1788.37883001565,1790.38103585059,"left",0,3,0.66493957532839,"C02N10","2021_Oct_01_1339","t1_Paradigm","2021.1.4",60.0129567845193,NA
"317","C02N10_t1_nback.csv","R","left","Distractor",0,60,60,60,1791.87893636153,1793.88074825155,"left",1,3,0.477461249517546,"C02N10","2021_Oct_01_1339","t1_Paradigm","2021.1.4",60.0129567845193,NA
"318","C02N10_t1_nback.csv","P","right","Target",0,61,61,61,1795.37866704821,1797.38055753473,"left",0,3,0.449507199921754,"C02N10","2021_Oct_01_1339","t1_Paradigm","2021.1.4",60.0129567845193,NA
"319","C02N10_t1_nback.csv","L","left","Distractor",0,62,62,62,1798.87859182012,1800.87904800065,"left",1,3,0.74299552769844,"C02N10","2021_Oct_01_1339","t1_Paradigm","2021.1.4",60.0129567845193,NA
"320","C02N10_t1_nback.csv","V","left","Distractor",0,63,63,63,1802.3786343264,1804.37892561466,"left",1,3,0.571035038963601,"C02N10","2021_Oct_01_1339","t1_Paradigm","2021.1.4",60.0129567845193,NA
"321","C02N10_t1_nback.csv","H","left","Lure",0,0,0,0,1814.23439466416,1816.23075612724,"left",1,3,0.559233052107629,"C02N10","2021_Oct_01_1339","t1_Paradigm","2021.1.4",60.0129567845193,NA
"322","C02N10_t1_nback.csv","B","left","Distractor",0,1,1,1,1817.72911378111,1819.73058273373,"left",1,3,0.291431986595853,"C02N10","2021_Oct_01_1339","t1_Paradigm","2021.1.4",60.0129567845193,NA
"323","C02N10_t1_nback.csv","T","left","Distractor",0,2,2,2,1821.22880180111,1823.231093611,"left",1,3,0.279133398156773,"C02N10","2021_Oct_01_1339","t1_Paradigm","2021.1.4",60.0129567845193,NA
"324","C02N10_t1_nback.csv","R","left","Distractor",0,3,3,3,1824.72879650788,1826.73047205702,"left",1,3,0.411653198862041,"C02N10","2021_Oct_01_1339","t1_Paradigm","2021.1.4",60.0129567845193,NA
"325","C02N10_t1_nback.csv","H","left","Pretarget",0,4,4,4,1828.22872994145,1830.23117220751,"left",1,3,0.57494818244777,"C02N10","2021_Oct_01_1339","t1_Paradigm","2021.1.4",60.0129567845193,NA
"326","C02N10_t1_nback.csv","K","left","Distractor",0,5,5,5,1831.72855783115,1833.72903743022,"left",1,3,0.420976669029187,"C02N10","2021_Oct_01_1339","t1_Paradigm","2021.1.4",60.0129567845193,NA
"327","C02N10_t1_nback.csv","G","left","Distractor",0,6,6,6,1835.22889579611,1837.23068298437,"left",1,3,0.503335860184052,"C02N10","2021_Oct_01_1339","t1_Paradigm","2021.1.4",60.0129567845193,NA
"328","C02N10_t1_nback.csv","H","right","Target",0,7,7,7,1838.72882313445,1840.73107003205,"left",0,3,0.55493077572828,"C02N10","2021_Oct_01_1339","t1_Paradigm","2021.1.4",60.0129567845193,NA
"329","C02N10_t1_nback.csv","Y","left","Pretarget",0,8,8,8,1842.22876041765,1844.23056428761,"left",1,3,0.447604843726367,"C02N10","2021_Oct_01_1339","t1_Paradigm","2021.1.4",60.0129567845193,NA
"330","C02N10_t1_nback.csv","S","left","Distractor",0,9,9,9,1845.72888697406,1847.73097699946,"left",1,3,0.419181781522639,"C02N10","2021_Oct_01_1339","t1_Paradigm","2021.1.4",60.0129567845193,NA
"331","C02N10_t1_nback.csv","P","left","Distractor",0,10,10,10,1849.22874245273,1851.22955504434,"left",1,3,0.568466697698568,"C02N10","2021_Oct_01_1339","t1_Paradigm","2021.1.4",60.0129567845193,NA
"332","C02N10_t1_nback.csv","Y","right","Target",0,11,11,11,1852.7287692397,1854.72943073354,"left",0,3,0.492615297061093,"C02N10","2021_Oct_01_1339","t1_Paradigm","2021.1.4",60.0129567845193,NA
"333","C02N10_t1_nback.csv","H","left","Lure",0,12,12,12,1856.22962529999,1858.23056877884,"left",1,3,0.479672538092927,"C02N10","2021_Oct_01_1339","t1_Paradigm","2021.1.4",60.0129567845193,NA
"334","C02N10_t1_nback.csv","Q","left","Distractor",0,13,13,13,1859.7286136507,1861.7289556257,"left",1,3,0.485179426194009,"C02N10","2021_Oct_01_1339","t1_Paradigm","2021.1.4",60.0129567845193,NA
"335","C02N10_t1_nback.csv","V","left","Pretarget",0,14,14,14,1863.24558969353,1865.23040099936,"left",1,3,0.439595378781632,"C02N10","2021_Oct_01_1339","t1_Paradigm","2021.1.4",60.0129567845193,NA
"336","C02N10_t1_nback.csv","G","left","Distractor",0,15,15,15,1866.72868005673,1868.73013168604,"right",0,3,1.14825129195015,"C02N10","2021_Oct_01_1339","t1_Paradigm","2021.1.4",60.0129567845193,NA
"337","C02N10_t1_nback.csv","Z","left","Pretarget",0,16,16,16,1870.22890381617,1872.23016007702,"left",1,3,0.464069046868644,"C02N10","2021_Oct_01_1339","t1_Paradigm","2021.1.4",60.0129567845193,NA
"338","C02N10_t1_nback.csv","V","right","Target",0,17,17,17,1873.72883500412,1875.7310623328,"left",0,3,0.41898897948704,"C02N10","2021_Oct_01_1339","t1_Paradigm","2021.1.4",60.0129567845193,NA
"339","C02N10_t1_nback.csv","N","left","Distractor",0,18,18,18,1877.22881944522,1879.23060214225,"left",1,3,0.439465453949197,"C02N10","2021_Oct_01_1339","t1_Paradigm","2021.1.4",60.0129567845193,NA
"340","C02N10_t1_nback.csv","Z","right","Target",0,19,19,19,1880.72957701928,1882.73086407713,"left",0,3,0.427228780306905,"C02N10","2021_Oct_01_1339","t1_Paradigm","2021.1.4",60.0129567845193,NA
"341","C02N10_t1_nback.csv","R","left","Distractor",0,20,20,20,1884.22880982116,1886.23055402194,"left",1,3,0.431534585509326,"C02N10","2021_Oct_01_1339","t1_Paradigm","2021.1.4",60.0129567845193,NA
"342","C02N10_t1_nback.csv","P","left","Distractor",0,21,21,21,1887.72881832242,1889.73054167106,"left",1,3,0.547834313437306,"C02N10","2021_Oct_01_1339","t1_Paradigm","2021.1.4",60.0129567845193,NA
"343","C02N10_t1_nback.csv","Z","right","Target",0,22,22,22,1891.22881014196,1893.22971576617,"right",1,3,0.584428524820396,"C02N10","2021_Oct_01_1339","t1_Paradigm","2021.1.4",60.0129567845193,NA
"344","C02N10_t1_nback.csv","D","left","Pretarget",0,23,23,23,1894.72881671841,1896.73057407207,"left",1,3,0.475655454742082,"C02N10","2021_Oct_01_1339","t1_Paradigm","2021.1.4",60.0129567845193,NA
"345","C02N10_t1_nback.csv","K","left","Distractor",0,24,24,24,1898.22946714458,1900.22932085884,"left",1,3,0.528777067272131,"C02N10","2021_Oct_01_1339","t1_Paradigm","2021.1.4",60.0129567845193,NA
"346","C02N10_t1_nback.csv","W","left","Distractor",0,25,25,25,1901.72875640762,1903.72926391647,"left",1,3,0.372754345504291,"C02N10","2021_Oct_01_1339","t1_Paradigm","2021.1.4",60.0129567845193,NA
"347","C02N10_t1_nback.csv","D","right","Target",0,26,26,26,1905.2287065229,1907.22915981621,"right",1,3,0.488834324023628,"C02N10","2021_Oct_01_1339","t1_Paradigm","2021.1.4",60.0129567845193,NA
"348","C02N10_t1_nback.csv","G","left","Pretarget",0,27,27,27,1908.72869641764,1910.72911089389,"left",1,3,0.508917174362978,"C02N10","2021_Oct_01_1339","t1_Paradigm","2021.1.4",60.0129567845193,NA
"349","C02N10_t1_nback.csv","V","left","Distractor",0,28,28,28,1912.22873026225,1914.23098838793,"left",1,3,0.463252926436326,"C02N10","2021_Oct_01_1339","t1_Paradigm","2021.1.4",60.0129567845193,NA
"350","C02N10_t1_nback.csv","D","right","Target",0,29,29,29,1915.72958824735,1917.73112649321,"right",1,3,0.658837920214864,"C02N10","2021_Oct_01_1339","t1_Paradigm","2021.1.4",60.0129567845193,NA
"351","C02N10_t1_nback.csv","G","right","Target",0,30,30,30,1919.22882586127,1921.22935037263,"left",0,3,0.584780123874225,"C02N10","2021_Oct_01_1339","t1_Paradigm","2021.1.4",60.0129567845193,NA
"352","C02N10_t1_nback.csv","B","left","Pretarget",0,31,31,31,1922.72869641764,1924.72931107438,"left",1,3,0.364866143737345,"C02N10","2021_Oct_01_1339","t1_Paradigm","2021.1.4",60.0129567845193,NA
"353","C02N10_t1_nback.csv","N","left","Distractor",0,32,32,32,1926.22886467831,1928.2293304829,"left",1,3,0.416691395158523,"C02N10","2021_Oct_01_1339","t1_Paradigm","2021.1.4",60.0129567845193,NA
"354","C02N10_t1_nback.csv","F","left","Distractor",0,33,33,33,1929.72862455797,1931.73010922989,"left",1,3,0.371937904270453,"C02N10","2021_Oct_01_1339","t1_Paradigm","2021.1.4",60.0129567845193,NA
"355","C02N10_t1_nback.csv","B","right","Target",0,34,34,34,1933.22883676854,1935.23031759083,"left",0,3,0.407724015273743,"C02N10","2021_Oct_01_1339","t1_Paradigm","2021.1.4",60.0129567845193,NA
"356","C02N10_t1_nback.csv","Q","left","Pretarget",0,35,35,35,1936.72872946025,1938.73055065352,"left",1,3,0.363640359079909,"C02N10","2021_Oct_01_1339","t1_Paradigm","2021.1.4",60.0129567845193,NA
"357","C02N10_t1_nback.csv","S","left","Pretarget",0,36,36,36,1940.22875560562,1942.23094828767,"left",1,3,0.511224703554944,"C02N10","2021_Oct_01_1339","t1_Paradigm","2021.1.4",60.0129567845193,NA
"358","C02N10_t1_nback.csv","W","left","Distractor",0,37,37,37,1943.72874165073,1945.72998219228,"left",1,3,0.372028370451517,"C02N10","2021_Oct_01_1339","t1_Paradigm","2021.1.4",60.0129567845193,NA
"359","C02N10_t1_nback.csv","Q","right","Target",0,38,38,38,1947.2296573802,1949.231124408,"right",1,3,0.438973022793107,"C02N10","2021_Oct_01_1339","t1_Paradigm","2021.1.4",60.0129567845193,NA
"360","C02N10_t1_nback.csv","S","right","Target",0,39,39,39,1950.72860883867,1952.72902491894,"left",0,3,0.572992252309632,"C02N10","2021_Oct_01_1339","t1_Paradigm","2021.1.4",60.0129567845193,NA
"361","C02N10_t1_nback.csv","T","left","Distractor",0,40,40,40,1954.22871582616,1956.22880500913,"left",1,3,0.497417383044194,"C02N10","2021_Oct_01_1339","t1_Paradigm","2021.1.4",60.0129567845193,NA
"362","C02N10_t1_nback.csv","G","left","Distractor",0,41,41,41,1957.72933609694,1959.73154032787,"left",1,3,0.434619738885885,"C02N10","2021_Oct_01_1339","t1_Paradigm","2021.1.4",60.0129567845193,NA
"363","C02N10_t1_nback.csv","D","left","Distractor",0,42,42,42,1961.22960733507,1963.2310313754,"left",1,3,0.71113218424216,"C02N10","2021_Oct_01_1339","t1_Paradigm","2021.1.4",60.0129567845193,NA
"364","C02N10_t1_nback.csv","S","left","Lure",0,43,43,43,1964.72881768081,1966.7300787537,"left",1,3,0.492056459878768,"C02N10","2021_Oct_01_1339","t1_Paradigm","2021.1.4",60.0129567845193,NA
"365","C02N10_t1_nback.csv","Z","left","Pretarget",0,44,44,44,1968.22882457806,1970.23094347564,"left",1,3,0.495246515528379,"C02N10","2021_Oct_01_1339","t1_Paradigm","2021.1.4",60.0129567845193,NA
"366","C02N10_t1_nback.csv","J","left","Distractor",0,45,45,45,1971.72879875349,1973.73080055832,"left",1,3,0.435314275337987,"C02N10","2021_Oct_01_1339","t1_Paradigm","2021.1.4",60.0129567845193,NA
"367","C02N10_t1_nback.csv","M","left","Pretarget",0,46,46,46,1975.22883548533,1977.23056011718,"left",1,3,0.455512935220213,"C02N10","2021_Oct_01_1339","t1_Paradigm","2021.1.4",60.0129567845193,NA
"368","C02N10_t1_nback.csv","Z","right","Target",0,47,47,47,1978.7288314753,1980.73055803197,"right",1,3,0.731389871702049,"C02N10","2021_Oct_01_1339","t1_Paradigm","2021.1.4",60.0129567845193,NA
"369","C02N10_t1_nback.csv","P","left","Distractor",0,48,48,48,1982.22877068331,1984.22978570102,"left",1,3,0.384355189470625,"C02N10","2021_Oct_01_1339","t1_Paradigm","2021.1.4",60.0129567845193,NA
"370","C02N10_t1_nback.csv","M","right","Target",0,49,49,49,1985.72891552544,1987.7299854003,"right",1,3,0.980245971768454,"C02N10","2021_Oct_01_1339","t1_Paradigm","2021.1.4",60.0129567845193,NA
"371","C02N10_t1_nback.csv","K","left","Distractor",0,50,50,50,1989.22875977604,1991.2299852399,"left",1,3,0.456046429039816,"C02N10","2021_Oct_01_1339","t1_Paradigm","2021.1.4",60.0129567845193,NA
"372","C02N10_t1_nback.csv","Y","left","Distractor",0,51,51,51,1992.72895755051,1994.73010858829,"left",1,3,0.380136963230143,"C02N10","2021_Oct_01_1339","t1_Paradigm","2021.1.4",60.0129567845193,NA
"373","C02N10_t1_nback.csv","X","left","Distractor",0,52,52,52,1996.22893750038,1998.23037437279,"left",1,3,0.44781464827156,"C02N10","2021_Oct_01_1339","t1_Paradigm","2021.1.4",60.0129567845193,NA
"374","C02N10_t1_nback.csv","F","left","Pretarget",0,53,53,53,1999.72954044785,2001.73099111475,"left",1,3,0.499018506107859,"C02N10","2021_Oct_01_1339","t1_Paradigm","2021.1.4",60.0129567845193,NA
"375","C02N10_t1_nback.csv","M","left","Lure",0,54,54,54,2003.22860514945,2005.22887430238,"left",1,3,0.745145222279461,"C02N10","2021_Oct_01_1339","t1_Paradigm","2021.1.4",60.0129567845193,NA
"376","C02N10_t1_nback.csv","V","left","Distractor",0,55,55,55,2006.72884238257,2008.72972651304,"left",1,3,0.556302204519852,"C02N10","2021_Oct_01_1339","t1_Paradigm","2021.1.4",60.0129567845193,NA
"377","C02N10_t1_nback.csv","F","right","Target",0,56,56,56,2010.2287844778,2012.23051103447,"left",0,3,0.431763638177472,"C02N10","2021_Oct_01_1339","t1_Paradigm","2021.1.4",60.0129567845193,NA
"378","C02N10_t1_nback.csv","S","left","Distractor",0,57,57,57,2013.72920264328,2015.73110788669,"left",1,3,0.451052503426581,"C02N10","2021_Oct_01_1339","t1_Paradigm","2021.1.4",60.0129567845193,NA
"379","C02N10_t1_nback.csv","D","left","Distractor",0,58,58,58,2017.22887173596,2019.23039490412,"left",1,3,0.487649281227277,"C02N10","2021_Oct_01_1339","t1_Paradigm","2021.1.4",60.0129567845193,NA
"380","C02N10_t1_nback.csv","F","right","Target",0,59,59,59,2020.72884334498,2022.73024653317,"right",1,3,0.73190989183513,"C02N10","2021_Oct_01_1339","t1_Paradigm","2021.1.4",60.0129567845193,NA
"381","C02N10_t1_nback.csv","V","left","Pretarget",0,60,60,60,2024.22872929985,2026.23036539033,"left",1,3,0.463857317510701,"C02N10","2021_Oct_01_1339","t1_Paradigm","2021.1.4",60.0129567845193,NA
"382","C02N10_t1_nback.csv","J","left","Distractor",0,61,61,61,2027.72876442767,2029.72969635765,"left",1,3,0.500403729387472,"C02N10","2021_Oct_01_1339","t1_Paradigm","2021.1.4",60.0129567845193,NA
"383","C02N10_t1_nback.csv","V","left","Lure",0,62,62,62,2031.22925445281,2033.23101886412,"left",1,3,0.503049063145227,"C02N10","2021_Oct_01_1339","t1_Paradigm","2021.1.4",60.0129567845193,NA
"384","C02N10_t1_nback.csv","V","right","Target",0,63,63,63,2034.72876506928,2036.72884206177,"left",0,3,0.717224215294664,"C02N10","2021_Oct_01_1339","t1_Paradigm","2021.1.4",60.0129567845193,NA
"385","C02N10_t1_nback.csv","R","left","Distractor",0,0,0,0,2102.06063190947,2104.04771000264,"left",1,4,0.598436667418355,"C02N10","2021_Oct_01_1339","t1_Paradigm","2021.1.4",60.0129567845193,NA
"386","C02N10_t1_nback.csv","F","left","Distractor",0,1,1,1,2105.54691938597,2107.54766813797,"left",1,4,0.362587165928744,"C02N10","2021_Oct_01_1339","t1_Paradigm","2021.1.4",60.0129567845193,NA
"387","C02N10_t1_nback.csv","P","left","Pretarget",0,2,2,2,2109.04540407746,2111.04570980182,"left",1,4,0.28831571541923,"C02N10","2021_Oct_01_1339","t1_Paradigm","2021.1.4",60.0129567845193,NA
"388","C02N10_t1_nback.csv","H","left","Distractor",0,3,3,3,2112.54533141579,2114.54597558632,"left",1,4,0.324070387820029,"C02N10","2021_Oct_01_1339","t1_Paradigm","2021.1.4",60.0129567845193,NA
"389","C02N10_t1_nback.csv","Z","left","Distractor",0,4,4,4,2116.04535274913,2118.04595810261,"left",1,4,0.456060865132713,"C02N10","2021_Oct_01_1339","t1_Paradigm","2021.1.4",60.0129567845193,NA
"390","C02N10_t1_nback.csv","T","left","Distractor",0,5,5,5,2119.54538498974,2121.54589731062,"left",1,4,0.508169705571163,"C02N10","2021_Oct_01_1339","t1_Paradigm","2021.1.4",60.0129567845193,NA
"391","C02N10_t1_nback.csv","P","right","Target",0,6,6,6,2123.04529885438,2125.04724099003,"right",1,4,0.686854847013819,"C02N10","2021_Oct_01_1339","t1_Paradigm","2021.1.4",60.0129567845193,NA
"392","C02N10_t1_nback.csv","G","left","Distractor",0,7,7,7,2126.54547834313,2128.54718757649,"None",0,4,NA,"C02N10","2021_Oct_01_1339","t1_Paradigm","2021.1.4",60.0129567845193,NA
"393","C02N10_t1_nback.csv","L","left","Distractor",0,8,8,8,2130.04550737572,2132.04727210783,"left",1,4,0.566907278902363,"C02N10","2021_Oct_01_1339","t1_Paradigm","2021.1.4",60.0129567845193,NA
"394","C02N10_t1_nback.csv","P","left","Lure",0,9,9,9,2133.54540584187,2135.5465491804,"left",1,4,0.379663780196097,"C02N10","2021_Oct_01_1339","t1_Paradigm","2021.1.4",60.0129567845193,NA
"395","C02N10_t1_nback.csv","Q","left","Pretarget",0,10,10,10,2137.04547850354,2139.04678930074,"left",1,4,0.447457916384337,"C02N10","2021_Oct_01_1339","t1_Paradigm","2021.1.4",60.0129567845193,NA
"396","C02N10_t1_nback.csv","D","left","Distractor",0,11,11,11,2140.54545524539,2142.54704610278,"left",1,4,0.467134310518304,"C02N10","2021_Oct_01_1339","t1_Paradigm","2021.1.4",60.0129567845193,NA
"397","C02N10_t1_nback.csv","M","left","Pretarget",0,12,12,12,2144.04541883435,2146.04639728062,"left",1,4,0.391743581632909,"C02N10","2021_Oct_01_1339","t1_Paradigm","2021.1.4",60.0129567845193,NA
"398","C02N10_t1_nback.csv","C","left","Distractor",0,13,13,13,2147.54596499985,2149.54763477456,"left",1,4,0.442382827851361,"C02N10","2021_Oct_01_1339","t1_Paradigm","2021.1.4",60.0129567845193,NA
"399","C02N10_t1_nback.csv","Q","right","Target",0,14,14,14,2151.04627216782,2153.04722462913,"left",0,4,0.318848371945023,"C02N10","2021_Oct_01_1339","t1_Paradigm","2021.1.4",60.0129567845193,NA
"400","C02N10_t1_nback.csv","R","left","Distractor",0,15,15,15,2154.54630344602,2156.54777881468,"left",1,4,0.450302468218979,"C02N10","2021_Oct_01_1339","t1_Paradigm","2021.1.4",60.0129567845193,NA
"401","C02N10_t1_nback.csv","M","right","Target",0,16,16,16,2158.04551379176,2160.04622372671,"left",0,4,0.471826682198298,"C02N10","2021_Oct_01_1339","t1_Paradigm","2021.1.4",60.0129567845193,NA
"402","C02N10_t1_nback.csv","S","left","Distractor",0,17,17,17,2161.54551780179,2163.54742914044,"left",1,4,0.474715504717096,"C02N10","2021_Oct_01_1339","t1_Paradigm","2021.1.4",60.0129567845193,NA
"403","C02N10_t1_nback.csv","Z","left","Distractor",0,18,18,18,2165.04534954111,2167.04591800235,"left",1,4,0.496299708679544,"C02N10","2021_Oct_01_1339","t1_Paradigm","2021.1.4",60.0129567845193,NA
"404","C02N10_t1_nback.csv","L","left","Pretarget",0,19,19,19,2168.54541867395,2170.5459717367,"left",1,4,0.452182689071378,"C02N10","2021_Oct_01_1339","t1_Paradigm","2021.1.4",60.0129567845193,NA
"405","C02N10_t1_nback.csv","M","right","Target",0,20,20,20,2172.04541273911,2174.04598280437,"right",1,4,0.616157773018131,"C02N10","2021_Oct_01_1339","t1_Paradigm","2021.1.4",60.0129567845193,NA
"406","C02N10_t1_nback.csv","P","left","Distractor",0,21,21,21,2175.54532339574,2177.54569937575,"left",1,4,0.396494980891475,"C02N10","2021_Oct_01_1339","t1_Paradigm","2021.1.4",60.0129567845193,NA
"407","C02N10_t1_nback.csv","F","left","Distractor",0,22,22,22,2179.04563184692,2181.04710208274,"left",1,4,0.286951344272893,"C02N10","2021_Oct_01_1339","t1_Paradigm","2021.1.4",60.0129567845193,NA
"408","C02N10_t1_nback.csv","L","right","Target",0,23,23,23,2182.5453474559,2184.54636568162,"left",0,4,0.387698588503554,"C02N10","2021_Oct_01_1339","t1_Paradigm","2021.1.4",60.0129567845193,NA
"409","C02N10_t1_nback.csv","L","left","Lure",0,24,24,24,2186.04559335067,2188.04560842837,"left",1,4,0.87245968881507,"C02N10","2021_Oct_01_1339","t1_Paradigm","2021.1.4",60.0129567845193,NA
"410","C02N10_t1_nback.csv","V","left","Pretarget",0,25,25,25,2189.54541835315,2191.5462367192,"left",1,4,0.555805602935834,"C02N10","2021_Oct_01_1339","t1_Paradigm","2021.1.4",60.0129567845193,NA
"411","C02N10_t1_nback.csv","Z","left","Distractor",0,26,26,26,2193.04542460879,2195.0477039074,"left",1,4,0.478546843676668,"C02N10","2021_Oct_01_1339","t1_Paradigm","2021.1.4",60.0129567845193,NA
"412","C02N10_t1_nback.csv","H","left","Distractor",0,27,27,27,2196.54539782182,2198.5473758873,"left",1,4,0.450737475807728,"C02N10","2021_Oct_01_1339","t1_Paradigm","2021.1.4",60.0129567845193,NA
"413","C02N10_t1_nback.csv","X","left","Distractor",0,28,28,28,2200.04556383688,2202.04661350121,"left",1,4,0.471474120737184,"C02N10","2021_Oct_01_1339","t1_Paradigm","2021.1.4",60.0129567845193,NA
"414","C02N10_t1_nback.csv","V","right","Target",0,29,29,29,2203.54555437322,2205.54642695482,"right",1,4,0.491681121472539,"C02N10","2021_Oct_01_1339","t1_Paradigm","2021.1.4",60.0129567845193,NA
"415","C02N10_t1_nback.csv","C","left","Distractor",0,30,30,30,2207.04550865893,2209.04763621817,"left",1,4,0.366534314432101,"C02N10","2021_Oct_01_1339","t1_Paradigm","2021.1.4",60.0129567845193,NA
"416","C02N10_t1_nback.csv","S","left","Pretarget",0,31,31,31,2210.5454725687,2212.54660115033,"left",1,4,0.387476593480642,"C02N10","2021_Oct_01_1339","t1_Paradigm","2021.1.4",60.0129567845193,NA
"417","C02N10_t1_nback.csv","D","left","Distractor",0,32,32,32,2214.0462683182,2216.04764840865,"left",1,4,0.374389152783806,"C02N10","2021_Oct_01_1339","t1_Paradigm","2021.1.4",60.0129567845193,NA
"418","C02N10_t1_nback.csv","V","left","Distractor",0,33,33,33,2217.54548989201,2219.54718051885,"left",1,4,0.37906740917424,"C02N10","2021_Oct_01_1339","t1_Paradigm","2021.1.4",60.0129567845193,NA
"419","C02N10_t1_nback.csv","R","left","Distractor",0,34,34,34,2221.0453633356,2223.04727018302,"left",1,4,0.414852236968727,"C02N10","2021_Oct_01_1339","t1_Paradigm","2021.1.4",60.0129567845193,NA
"420","C02N10_t1_nback.csv","S","right","Target",0,35,35,35,2224.54542252358,2226.54736722564,"left",0,4,0.386718859022949,"C02N10","2021_Oct_01_1339","t1_Paradigm","2021.1.4",60.0129567845193,NA
"421","C02N10_t1_nback.csv","Y","left","Distractor",0,36,36,36,2228.04543134563,2230.04759034347,"left",1,4,0.454558869903849,"C02N10","2021_Oct_01_1339","t1_Paradigm","2021.1.4",60.0129567845193,NA
"422","C02N10_t1_nback.csv","N","left","Pretarget",0,37,37,37,2231.54636119039,2233.54728125069,"left",1,4,0.330969877649295,"C02N10","2021_Oct_01_1339","t1_Paradigm","2021.1.4",60.0129567845193,NA
"423","C02N10_t1_nback.csv","Z","left","Pretarget",0,38,38,38,2235.04627986707,2237.04768530088,"left",1,4,0.36637968784089,"C02N10","2021_Oct_01_1339","t1_Paradigm","2021.1.4",60.0129567845193,NA
"424","C02N10_t1_nback.csv","P","left","Pretarget",0,39,39,39,2238.54537215765,2240.54595345098,"left",1,4,0.356082583431999,"C02N10","2021_Oct_01_1339","t1_Paradigm","2021.1.4",60.0129567845193,NA
"425","C02N10_t1_nback.csv","M","left","Distractor",0,40,40,40,2242.04539092457,2244.04589682942,"left",1,4,0.58418343204994,"C02N10","2021_Oct_01_1339","t1_Paradigm","2021.1.4",60.0129567845193,NA
"426","C02N10_t1_nback.csv","N","right","Target",0,41,41,41,2245.54540808748,2247.5476883485,"left",0,4,0.522412033669752,"C02N10","2021_Oct_01_1339","t1_Paradigm","2021.1.4",60.0129567845193,NA
"427","C02N10_t1_nback.csv","Z","right","Target",0,42,42,42,2249.04544642333,2251.04645694981,"right",1,4,0.447778076836585,"C02N10","2021_Oct_01_1339","t1_Paradigm","2021.1.4",60.0129567845193,NA
"428","C02N10_t1_nback.csv","P","right","Target",0,43,43,43,2252.54549823286,2254.54713207774,"right",1,4,0.546980979966975,"C02N10","2021_Oct_01_1339","t1_Paradigm","2021.1.4",60.0129567845193,NA
"429","C02N10_t1_nback.csv","X","left","Pretarget",0,44,44,44,2256.04537680928,2258.0471736216,"left",1,4,0.406915273289087,"C02N10","2021_Oct_01_1339","t1_Paradigm","2021.1.4",60.0129567845193,NA
"430","C02N10_t1_nback.csv","Z","left","Lure",0,45,45,45,2259.54543952609,2261.54733097501,"left",1,4,0.410889369164579,"C02N10","2021_Oct_01_1339","t1_Paradigm","2021.1.4",60.0129567845193,NA
"431","C02N10_t1_nback.csv","R","left","Pretarget",0,46,46,46,2263.04542011756,2265.04728493992,"left",1,4,0.4949087109635,"C02N10","2021_Oct_01_1339","t1_Paradigm","2021.1.4",60.0129567845193,NA
"432","C02N10_t1_nback.csv","K","left","Distractor",0,47,47,47,2266.54524640325,2268.54682539097,"left",1,4,0.419380678798007,"C02N10","2021_Oct_01_1339","t1_Paradigm","2021.1.4",60.0129567845193,NA
"433","C02N10_t1_nback.csv","X","right","Target",0,48,48,48,2270.04550095968,2272.04727659906,"left",0,4,0.342801699096526,"C02N10","2021_Oct_01_1339","t1_Paradigm","2021.1.4",60.0129567845193,NA
"434","C02N10_t1_nback.csv","B","left","Distractor",0,49,49,49,2273.54543246844,2275.54645261898,"left",1,4,0.411765479580936,"C02N10","2021_Oct_01_1339","t1_Paradigm","2021.1.4",60.0129567845193,NA
"435","C02N10_t1_nback.csv","R","right","Target",0,50,50,50,2277.0455827642,2279.04638958138,"left",0,4,0.479891004293677,"C02N10","2021_Oct_01_1339","t1_Paradigm","2021.1.4",60.0129567845193,NA
"436","C02N10_t1_nback.csv","Y","left","Pretarget",0,51,51,51,2280.54620945102,2282.54768000765,"left",1,4,0.402426931717855,"C02N10","2021_Oct_01_1339","t1_Paradigm","2021.1.4",60.0129567845193,NA
"437","C02N10_t1_nback.csv","W","left","Pretarget",0,52,52,52,2284.04550577171,2286.05848959334,"left",1,4,0.395612133632312,"C02N10","2021_Oct_01_1339","t1_Paradigm","2021.1.4",60.0129567845193,NA
"438","C02N10_t1_nback.csv","Z","left","Distractor",0,53,53,53,2287.54592233318,2289.54768481968,"left",1,4,0.330558930214465,"C02N10","2021_Oct_01_1339","t1_Paradigm","2021.1.4",60.0129567845193,NA
"439","C02N10_t1_nback.csv","Q","left","Distractor",0,54,54,54,2291.04608449862,2293.04784056908,"left",1,4,0.334266118778942,"C02N10","2021_Oct_01_1339","t1_Paradigm","2021.1.4",60.0129567845193,NA
"440","C02N10_t1_nback.csv","Y","right","Target",0,55,55,55,2294.54549117522,2296.54665568668,"left",0,4,0.403444836642848,"C02N10","2021_Oct_01_1339","t1_Paradigm","2021.1.4",60.0129567845193,NA
"441","C02N10_t1_nback.csv","W","right","Target",0,56,56,56,2298.04541241831,2300.04715469428,"right",1,4,0.567050356619802,"C02N10","2021_Oct_01_1339","t1_Paradigm","2021.1.4",60.0129567845193,NA
"442","C02N10_t1_nback.csv","H","left","Pretarget",0,57,57,57,2301.54557233814,2303.54673107516,"left",1,4,0.379532572155767,"C02N10","2021_Oct_01_1339","t1_Paradigm","2021.1.4",60.0129567845193,NA
"443","C02N10_t1_nback.csv","M","left","Distractor",0,58,58,58,2305.04550545091,2307.04730996248,"left",1,4,0.606785220135862,"C02N10","2021_Oct_01_1339","t1_Paradigm","2021.1.4",60.0129567845193,NA
"444","C02N10_t1_nback.csv","R","left","Pretarget",0,59,59,59,2308.54544433812,2310.54719655895,"left",1,4,0.41894727521958,"C02N10","2021_Oct_01_1339","t1_Paradigm","2021.1.4",60.0129567845193,NA
"445","C02N10_t1_nback.csv","J","left","Distractor",0,60,60,60,2312.04558693463,2314.04775587733,"left",1,4,0.32657360626672,"C02N10","2021_Oct_01_1339","t1_Paradigm","2021.1.4",60.0129567845193,NA
"446","C02N10_t1_nback.csv","H","right","Target",0,61,61,61,2315.54535964637,2317.54558773664,"left",0,4,0.508483449982123,"C02N10","2021_Oct_01_1339","t1_Paradigm","2021.1.4",60.0129567845193,NA
"447","C02N10_t1_nback.csv","Z","left","Distractor",0,62,62,62,2319.0455356063,2321.04695932583,"left",1,4,0.47925709942956,"C02N10","2021_Oct_01_1339","t1_Paradigm","2021.1.4",60.0129567845193,NA
"448","C02N10_t1_nback.csv","R","right","Target",0,63,63,63,2322.54560698476,2324.5462995964,"left",0,4,0.403763713887201,"C02N10","2021_Oct_01_1339","t1_Paradigm","2021.1.4",60.0129567845193,NA
"449","C02N10_t1_nback.csv","J","left","Pretarget",0,0,0,0,2352.37764946408,2354.36408210351,"left",1,4,0.346238130725396,"C02N10","2021_Oct_01_1339","t1_Paradigm","2021.1.4",60.0129567845193,NA
"450","C02N10_t1_nback.csv","G","left","Pretarget",0,1,1,1,2355.86193192773,2357.86225337139,"left",1,4,0.239785101118287,"C02N10","2021_Oct_01_1339","t1_Paradigm","2021.1.4",60.0129567845193,NA
"451","C02N10_t1_nback.csv","Z","left","Distractor",0,2,2,2,2359.36257433385,2361.36401056465,"left",1,4,1.33016883491473,"C02N10","2021_Oct_01_1339","t1_Paradigm","2021.1.4",60.0129567845193,NA
"452","C02N10_t1_nback.csv","F","left","Distractor",0,3,3,3,2362.86188733624,2364.86403542681,"left",1,4,0.342346801779968,"C02N10","2021_Oct_01_1339","t1_Paradigm","2021.1.4",60.0129567845193,NA
"453","C02N10_t1_nback.csv","J","right","Target",0,4,4,4,2366.36220669469,2368.36421940679,"right",1,4,0.441964501968869,"C02N10","2021_Oct_01_1339","t1_Paradigm","2021.1.4",60.0129567845193,NA
"454","C02N10_t1_nback.csv","G","right","Target",0,5,5,5,2369.86211927613,2371.86354620368,"left",0,4,0.574580543290722,"C02N10","2021_Oct_01_1339","t1_Paradigm","2021.1.4",60.0129567845193,NA
"455","C02N10_t1_nback.csv","H","left","Distractor",0,6,6,6,2373.36213996786,2375.36326181265,"left",1,4,0.515158699173298,"C02N10","2021_Oct_01_1339","t1_Paradigm","2021.1.4",60.0129567845193,NA
"456","C02N10_t1_nback.csv","P","left","Distractor",0,7,7,7,2376.86215745157,2378.86327833396,"left",1,4,0.486836048014084,"C02N10","2021_Oct_01_1339","t1_Paradigm","2021.1.4",60.0129567845193,NA
"457","C02N10_t1_nback.csv","G","left","Lure",0,8,8,8,2380.36289898553,2382.36426913111,"right",0,4,0.649920906253101,"C02N10","2021_Oct_01_1339","t1_Paradigm","2021.1.4",60.0129567845193,NA
"458","C02N10_t1_nback.csv","S","left","Distractor",0,9,9,9,2383.86216643403,2385.86393437417,"left",1,4,0.414619976279937,"C02N10","2021_Oct_01_1339","t1_Paradigm","2021.1.4",60.0129567845193,NA
"459","C02N10_t1_nback.csv","R","left","Pretarget",0,10,10,10,2387.36213226861,2389.36396725638,"left",1,4,0.43424953331305,"C02N10","2021_Oct_01_1339","t1_Paradigm","2021.1.4",60.0129567845193,NA
"460","C02N10_t1_nback.csv","T","left","Pretarget",0,11,11,11,2390.8621455819,2392.86311536651,"left",1,4,0.519052915336943,"C02N10","2021_Oct_01_1339","t1_Paradigm","2021.1.4",60.0129567845193,NA
"461","C02N10_t1_nback.csv","X","left","Distractor",0,12,12,12,2394.36209698039,2396.36433874516,"left",1,4,0.442062025794257,"C02N10","2021_Oct_01_1339","t1_Paradigm","2021.1.4",60.0129567845193,NA
"462","C02N10_t1_nback.csv","F","left","Pretarget",0,13,13,13,2397.86271468475,2399.86388529145,"left",1,4,0.462437768410382,"C02N10","2021_Oct_01_1339","t1_Paradigm","2021.1.4",60.0129567845193,NA
"463","C02N10_t1_nback.csv","R","right","Target",0,14,14,14,2401.36191059439,2403.36225770222,"left",0,4,0.41982081921924,"C02N10","2021_Oct_01_1339","t1_Paradigm","2021.1.4",60.0129567845193,NA
"464","C02N10_t1_nback.csv","T","right","Target",0,15,15,15,2404.8619749152,2406.86339831393,"left",0,4,0.343046471065463,"C02N10","2021_Oct_01_1339","t1_Paradigm","2021.1.4",60.0129567845193,NA
"465","C02N10_t1_nback.csv","C","left","Distractor",0,16,16,16,2408.36215729117,2410.36401441428,"left",1,4,0.52233504117703,"C02N10","2021_Oct_01_1339","t1_Paradigm","2021.1.4",60.0129567845193,NA
"466","C02N10_t1_nback.csv","F","right","Target",0,17,17,17,2411.8620833463,2413.86442071008,"left",0,4,0.205680634495366,"C02N10","2021_Oct_01_1339","t1_Paradigm","2021.1.4",60.0129567845193,NA
"467","C02N10_t1_nback.csv","M","left","Distractor",0,18,18,18,2415.36193722096,2417.36253872482,"left",1,4,0.307727447855541,"C02N10","2021_Oct_01_1339","t1_Paradigm","2021.1.4",60.0129567845193,NA
"468","C02N10_t1_nback.csv","N","left","Distractor",0,19,19,19,2418.86213210821,2420.86385609846,"left",1,4,0.326283280405733,"C02N10","2021_Oct_01_1339","t1_Paradigm","2021.1.4",60.0129567845193,NA
"469","C02N10_t1_nback.csv","R","left","Lure",0,20,20,20,2422.36215761197,2424.36223588768,"left",1,4,0.380010246418351,"C02N10","2021_Oct_01_1339","t1_Paradigm","2021.1.4",60.0129567845193,NA
"470","C02N10_t1_nback.csv","F","right","Target",0,21,21,21,2425.86192519088,2427.86357667987,"right",1,4,0.462725207054064,"C02N10","2021_Oct_01_1339","t1_Paradigm","2021.1.4",60.0129567845193,NA
"471","C02N10_t1_nback.csv","P","left","Distractor",0,22,22,22,2429.36297726123,2431.36416102082,"left",1,4,0.402018550699722,"C02N10","2021_Oct_01_1339","t1_Paradigm","2021.1.4",60.0129567845193,NA
"472","C02N10_t1_nback.csv","L","left","Pretarget",0,23,23,23,2432.86201790268,2434.86299602815,"left",1,4,0.455139200824306,"C02N10","2021_Oct_01_1339","t1_Paradigm","2021.1.4",60.0129567845193,NA
"473","C02N10_t1_nback.csv","T","left","Distractor",0,24,24,24,2436.36218070972,2438.36400126139,"left",1,4,0.298183265874286,"C02N10","2021_Oct_01_1339","t1_Paradigm","2021.1.4",60.0129567845193,NA
"474","C02N10_t1_nback.csv","F","left","Distractor",0,25,25,25,2439.86293058453,2441.86435558726,"left",1,4,0.381808662746153,"C02N10","2021_Oct_01_1339","t1_Paradigm","2021.1.4",60.0129567845193,NA
"475","C02N10_t1_nback.csv","V","left","Distractor",0,26,26,26,2443.3624582035,2445.36399131653,"left",1,4,0.482331987141151,"C02N10","2021_Oct_01_1339","t1_Paradigm","2021.1.4",60.0129567845193,NA
"476","C02N10_t1_nback.csv","L","right","Target",0,27,27,27,2446.86305377252,2448.86383364232,"right",1,4,0.790323455089492,"C02N10","2021_Oct_01_1339","t1_Paradigm","2021.1.4",60.0129567845193,NA
"477","C02N10_t1_nback.csv","S","left","Pretarget",0,28,28,28,2450.36210243402,2452.36367789292,"left",1,4,0.362615396509682,"C02N10","2021_Oct_01_1339","t1_Paradigm","2021.1.4",60.0129567845193,NA
"478","C02N10_t1_nback.csv","W","left","Distractor",0,29,29,29,2453.86212120094,2455.86382241425,"left",1,4,0.574301124699559,"C02N10","2021_Oct_01_1339","t1_Paradigm","2021.1.4",60.0129567845193,NA
"479","C02N10_t1_nback.csv","Q","left","Distractor",0,30,30,30,2457.36218584256,2459.3630815219,"left",1,4,0.371054736209771,"C02N10","2021_Oct_01_1339","t1_Paradigm","2021.1.4",60.0129567845193,NA
"480","C02N10_t1_nback.csv","L","right","Target",0,31,31,31,2460.86220108065,2462.86350449941,"left",0,4,0.374635207961546,"C02N10","2021_Oct_01_1339","t1_Paradigm","2021.1.4",60.0129567845193,NA
"481","C02N10_t1_nback.csv","S","right","Target",0,32,32,32,2464.36296731637,2466.36385786287,"left",0,4,0.314592932666528,"C02N10","2021_Oct_01_1339","t1_Paradigm","2021.1.4",60.0129567845193,NA
"482","C02N10_t1_nback.csv","Z","left","Pretarget",0,33,33,33,2467.86197234879,2469.86227390272,"left",1,4,0.36780918180375,"C02N10","2021_Oct_01_1339","t1_Paradigm","2021.1.4",60.0129567845193,NA
"483","C02N10_t1_nback.csv","F","left","Distractor",0,34,34,34,2471.36193048412,2473.36217236887,"left",1,4,0.355912558342425,"C02N10","2021_Oct_01_1339","t1_Paradigm","2021.1.4",60.0129567845193,NA
"484","C02N10_t1_nback.csv","V","left","Distractor",0,35,35,35,2474.86193000292,2476.8638621937,"left",1,4,0.390273987412002,"C02N10","2021_Oct_01_1339","t1_Paradigm","2021.1.4",60.0129567845193,NA
"485","C02N10_t1_nback.csv","M","left","Distractor",0,36,36,36,2478.36208960194,2480.37870843167,"left",1,4,0.475417419615951,"C02N10","2021_Oct_01_1339","t1_Paradigm","2021.1.4",60.0129567845193,NA
"486","C02N10_t1_nback.csv","Z","right","Target",0,37,37,37,2481.86213531623,2483.86285070482,"left",0,4,0.383267028894807,"C02N10","2021_Oct_01_1339","t1_Paradigm","2021.1.4",60.0129567845193,NA
"487","C02N10_t1_nback.csv","H","left","Pretarget",0,38,38,38,2485.36213579744,2487.36293780258,"left",1,4,0.387158678641754,"C02N10","2021_Oct_01_1339","t1_Paradigm","2021.1.4",60.0129567845193,NA
"488","C02N10_t1_nback.csv","L","left","Distractor",0,39,39,39,2488.86207853427,2490.86271725116,"left",1,4,0.519468995604257,"C02N10","2021_Oct_01_1339","t1_Paradigm","2021.1.4",60.0129567845193,NA
"489","C02N10_t1_nback.csv","G","left","Distractor",0,40,40,40,2492.36226636387,2494.36276328626,"left",1,4,0.587340765890076,"C02N10","2021_Oct_01_1339","t1_Paradigm","2021.1.4",60.0129567845193,NA
"490","C02N10_t1_nback.csv","K","left","Distractor",0,41,41,41,2495.86214237388,2497.86441269003,"left",1,4,0.461882460051129,"C02N10","2021_Oct_01_1339","t1_Paradigm","2021.1.4",60.0129567845193,NA
"491","C02N10_t1_nback.csv","H","right","Target",0,42,42,42,2499.36218648416,2501.36310237403,"left",0,4,0.515360483666882,"C02N10","2021_Oct_01_1339","t1_Paradigm","2021.1.4",60.0129567845193,NA
"492","C02N10_t1_nback.csv","B","left","Distractor",0,43,43,43,2502.86222738642,2504.86334313597,"left",1,4,0.486775737227617,"C02N10","2021_Oct_01_1339","t1_Paradigm","2021.1.4",60.0129567845193,NA
"493","C02N10_t1_nback.csv","Z","left","Distractor",0,44,44,44,2506.36216082,2508.36396629397,"left",1,4,0.442285304025972,"C02N10","2021_Oct_01_1339","t1_Paradigm","2021.1.4",60.0129567845193,NA
"494","C02N10_t1_nback.csv","T","left","Pretarget",0,45,45,45,2509.86209810319,2511.86329469486,"left",1,4,0.73490971186493,"C02N10","2021_Oct_01_1339","t1_Paradigm","2021.1.4",60.0129567845193,NA
"495","C02N10_t1_nback.csv","H","right","Target",0,46,46,46,2513.36216691523,2515.36388160223,"right",1,4,0.946460382389887,"C02N10","2021_Oct_01_1339","t1_Paradigm","2021.1.4",60.0129567845193,NA
"496","C02N10_t1_nback.csv","F","left","Distractor",0,47,47,47,2516.86208976234,2518.86392539171,"left",1,4,0.390208222990623,"C02N10","2021_Oct_01_1339","t1_Paradigm","2021.1.4",60.0129567845193,NA
"497","C02N10_t1_nback.csv","R","left","Distractor",0,48,48,48,2520.36215953679,2522.36418219375,"left",1,4,0.394076454187598,"C02N10","2021_Oct_01_1339","t1_Paradigm","2021.1.4",60.0129567845193,NA
"498","C02N10_t1_nback.csv","T","right","Target",0,49,49,49,2523.86223155685,2525.86322604322,"left",0,4,0.574901345347826,"C02N10","2021_Oct_01_1339","t1_Paradigm","2021.1.4",60.0129567845193,NA
"499","C02N10_t1_nback.csv","H","right","Target",0,50,50,50,2527.36214702551,2529.36393517617,"left",0,4,0.482303114955357,"C02N10","2021_Oct_01_1339","t1_Paradigm","2021.1.4",60.0129567845193,NA
"500","C02N10_t1_nback.csv","Y","left","Pretarget",0,51,51,51,2530.86290331636,2532.86431099578,"left",1,4,0.485807235818356,"C02N10","2021_Oct_01_1339","t1_Paradigm","2021.1.4",60.0129567845193,NA
"501","C02N10_t1_nback.csv","H","left","Distractor",0,52,52,52,2534.36213387262,2536.36331346178,"right",0,4,0.570827480031767,"C02N10","2021_Oct_01_1339","t1_Paradigm","2021.1.4",60.0129567845193,NA
"502","C02N10_t1_nback.csv","S","left","Distractor",0,53,53,53,2537.8621622636,2539.86395009347,"None",0,4,NA,"C02N10","2021_Oct_01_1339","t1_Paradigm","2021.1.4",60.0129567845193,NA
"503","C02N10_t1_nback.csv","Q","left","Distractor",0,54,54,54,2541.36209088515,2543.36327400313,"left",1,4,0.450938939498883,"C02N10","2021_Oct_01_1339","t1_Paradigm","2021.1.4",60.0129567845193,NA
"504","C02N10_t1_nback.csv","Y","right","Target",0,55,55,55,2544.86214975232,2546.86368703578,"left",0,4,0.406478982493354,"C02N10","2021_Oct_01_1339","t1_Paradigm","2021.1.4",60.0129567845193,NA
"505","C02N10_t1_nback.csv","R","left","Distractor",0,56,56,56,2548.36294325621,2550.37506572432,"left",1,4,0.527426490614744,"C02N10","2021_Oct_01_1339","t1_Paradigm","2021.1.4",60.0129567845193,NA
"506","C02N10_t1_nback.csv","H","left","Pretarget",0,57,57,57,2551.86185814326,2553.86397287041,"left",1,4,0.510167660778279,"C02N10","2021_Oct_01_1339","t1_Paradigm","2021.1.4",60.0129567845193,NA
"507","C02N10_t1_nback.csv","J","left","Distractor",0,58,58,58,2555.36216884005,2557.36312964221,"left",1,4,0.579126950035061,"C02N10","2021_Oct_01_1339","t1_Paradigm","2021.1.4",60.0129567845193,NA
