Sub,Session,Procedure[Trial],,Condition,CueCued[SubTrial],CueUncued[SubTrial],Match[SubTrial],Name[SubTrial],Stimulus[SubTrial],Type trial,Stimulus.ACC,Stimulus..CRESP,Stimulus.RESP,Stimulus.RT
1,1,Block1,1,Uncued,4,0,NONMATCH,v1,Y,control,1,3,3,539
1,1,Block1,2,Uncued,2,0,NONMATCH,t1,H,control,1,3,3,391
1,1,Block1,3,Uncued,0,0,NONMATCH,0,W,control,1,3,3,347
1,1,Block1,4,Uncued,0,0,NONMATCH,t2,H,2back,1,3,3,675
1,1,Block1,5,Uncued,0,0,NONMATCH,v2,Y,4back,1,3,3,409
1,1,Block1,6,Uncued,0,0,NONMATCH,d1,S,control,1,3,3,435
1,1,Block1,7,Uncued,0,0,NONMATCH,0,D,control,1,3,3,474
1,1,Block1,8,Uncued,0,0,NONMATCH,d1,R,control,1,3,3,467
1,1,Block1,9,Uncued,0,0,MATCH,d2,S,3back,1,4,4,315
1,1,Block1,10,Uncued,0,0,NONMATCH,0,C,control,1,3,3,237
1,1,Block1,11,Uncued,0,0,MATCH,d2,R,3back,0,4,3,412
1,1,Block1,12,Uncued,0,0,NONMATCH,d1,O,control,1,3,3,362
1,1,Block1,13,Uncued,0,0,NONMATCH,d1,P,control,1,3,3,514
1,1,Block1,14,Uncued,4,0,NONMATCH,v1,K,control,1,3,3,807
1,1,Block1,15,Uncued,0,0,MATCH,d2,O,3back,1,4,4,392
1,1,Block1,16,Uncued,0,0,MATCH,d2,P,3back,0,4,3,501
1,1,Block1,17,Uncued,2,0,NONMATCH,t1,M,control,1,3,3,538
1,1,Block1,18,Uncued,0,0,NONMATCH,v2,K,4back,0,3,4,990
1,1,Block1,19,Uncued,0,0,NONMATCH,t2,M,2back,1,3,3,1040
1,1,Block1,20,Uncued,2,0,NONMATCH,t1,E,control,1,3,3,554
1,1,Block1,21,Uncued,4,0,NONMATCH,v1,J,control,1,3,3,672
1,1,Block1,22,Uncued,0,0,NONMATCH,t2,E,2back,1,3,3,1557
1,1,Block1,23,Uncued,0,0,NONMATCH,0,G,control,1,3,3,524
1,1,Block1,24,Uncued,2,0,NONMATCH,t1,A,control,1,3,3,493
1,1,Block1,25,Uncued,0,0,NONMATCH,v2,J,4back,1,3,3,806
1,1,Block1,26,Uncued,0,0,NONMATCH,t2,A,2back,1,3,3,1165
1,1,Block1,27,Uncued,0,0,NONMATCH,0,U,control,1,3,3,451
1,1,Block1,28,Uncued,4,0,NONMATCH,v1,B,control,1,3,3,428
1,1,Block1,29,Uncued,0,0,NONMATCH,0,T,control,1,3,3,1918
1,1,Block1,30,Uncued,0,0,NONMATCH,0,L,control,1,3,3,544
1,1,Block1,31,Uncued,0,0,NONMATCH,0,Z,control,1,3,3,452
1,1,Block1,32,Uncued,0,0,NONMATCH,v2,B,4back,1,3,3,1016
1,1,Block2,1,Uncued,0,0,NONMATCH,d1,O,control,1,3,3,700
1,1,Block2,2,Uncued,0,0,NONMATCH,0,P,control,1,3,3,369
1,1,Block2,3,Uncued,0,0,NONMATCH,0,U,control,1,3,3,315
1,1,Block2,4,Uncued,0,0,MATCH,d2,O,3back,1,4,4,596
1,1,Block2,5,Uncued,0,0,NONMATCH,d1,B,control,1,3,3,502
1,1,Block2,6,Uncued,0,0,NONMATCH,0,M,control,1,3,3,562
1,1,Block2,7,Uncued,2,0,NONMATCH,t1,L,control,1,3,3,492
1,1,Block2,8,Uncued,0,0,MATCH,d2,B,3back,1,4,4,607
1,1,Block2,9,Uncued,0,0,NONMATCH,t2,L,2back,1,3,3,362
1,1,Block2,10,Uncued,0,0,NONMATCH,d1,T,control,1,3,3,519
1,1,Block2,11,Uncued,0,0,NONMATCH,0,Z,control,1,3,3,739
1,1,Block2,12,Uncued,2,0,NONMATCH,t1,W,control,1,3,3,576
1,1,Block2,13,Uncued,0,0,MATCH,d2,T,3back,0,4,3,903
1,1,Block2,14,Uncued,0,0,NONMATCH,t2,W,2back,1,3,3,842
1,1,Block2,15,Uncued,0,0,NONMATCH,d1,S,control,1,3,3,556
1,1,Block2,16,Uncued,0,0,NONMATCH,0,J,control,1,3,3,531
1,1,Block2,17,Uncued,2,0,NONMATCH,t1,Y,control,1,3,3,539
1,1,Block2,18,Uncued,0,0,MATCH,d2,S,3back,1,4,4,361
1,1,Block2,19,Uncued,0,0,NONMATCH,t2,Y,2back,0,3,4,2322
1,1,Block2,20,Uncued,4,0,NONMATCH,v1,A,control,1,3,3,455
1,1,Block2,21,Uncued,2,0,NONMATCH,t1,C,control,1,3,3,665
1,1,Block2,22,Uncued,4,0,NONMATCH,v1,H,control,1,3,3,608
1,1,Block2,23,Uncued,0,0,NONMATCH,t2,C,2back,1,3,3,913
1,1,Block2,24,Uncued,0,0,NONMATCH,v2,A,4back,1,3,3,500
1,1,Block2,25,Uncued,0,0,NONMATCH,0,R,control,1,3,3,507
1,1,Block2,26,Uncued,0,0,NONMATCH,v2,H,4back,1,3,3,1393
1,1,Block2,27,Uncued,4,0,NONMATCH,v1,E,control,1,3,3,1765
1,1,Block2,28,Uncued,4,0,NONMATCH,v1,D,control,1,3,3,1591
1,1,Block2,29,Uncued,0,0,NONMATCH,0,K,control,1,3,3,482
1,1,Block2,30,Uncued,0,0,NONMATCH,0,G,control,1,3,3,585
1,1,Block2,31,Uncued,0,0,NONMATCH,v2,E,4back,0,3,4,1631
1,1,Block2,32,Uncued,0,0,NONMATCH,v2,D,4back,1,3,3,528
1,1,Block3,1,Cued,0,0,NONMATCH,d1,Y,control,1,3,3,684
1,1,Block3,2,Cued,0,0,NONMATCH,0,P,control,1,3,3,712
1,1,Block3,3,Cued,2,0,NONMATCH,t1,U,control,1,3,3,1810
1,1,Block3,4,Cued,0,0,MATCH,d2,Y,3back,1,4,4,914
1,1,Block3,5,Cued,0,0,NONMATCH,t2,U,2back,1,3,3,552
1,1,Block3,6,Cued,4,0,NONMATCH,v1,D,control,1,3,3,1729
1,1,Block3,7,Cued,0,0,NONMATCH,0,E,control,1,3,3,1355
1,1,Block3,8,Cued,4,0,NONMATCH,v1,S,control,1,3,3,1436
1,1,Block3,9,Cued,0,0,NONMATCH,0,R,control,1,3,3,1208
1,1,Block3,10,Cued,0,0,NONMATCH,v2,D,4back,1,3,3,1383
1,1,Block3,11,Cued,2,0,NONMATCH,t1,M,control,1,3,3,1361
1,1,Block3,12,Cued,0,0,NONMATCH,v2,S,4back,1,3,3,606
1,1,Block3,13,Cued,0,0,NONMATCH,t2,M,2back,1,3,3,1034
1,1,Block3,14,Cued,0,0,NONMATCH,d1,J,control,0,,,0
1,1,Block3,15,Cued,0,0,NONMATCH,0,Z,control,1,3,3,1033
1,1,Block3,16,Cued,0,0,NONMATCH,d1,A,control,1,3,3,590
1,1,Block3,17,Cued,0,0,MATCH,d2,J,3back,1,4,4,848
1,1,Block3,18,Cued,0,0,NONMATCH,0,G,control,1,3,3,508
1,1,Block3,19,Cued,0,0,MATCH,d2,A,3back,1,4,4,1231
1,1,Block3,20,Cued,2,0,NONMATCH,t1,H,control,1,3,3,1879
1,1,Block3,21,Cued,4,0,NONMATCH,v1,K,control,0,3,4,1122
1,1,Block3,22,Cued,0,0,NONMATCH,t2,H,2back,0,3,4,1336
1,1,Block3,23,Cued,0,0,NONMATCH,0,W,control,1,3,3,600
1,1,Block3,24,Cued,2,0,NONMATCH,t1,B,control,1,3,3,782
1,1,Block3,25,Cued,0,0,NONMATCH,v2,K,4back,0,3,4,871
1,1,Block3,26,Cued,0,0,NONMATCH,t2,B,2back,0,3,4,1225
1,1,Block3,27,Cued,0,0,NONMATCH,d1,O,control,1,3,3,1011
1,1,Block3,28,Cued,4,0,NONMATCH,v1,L,control,1,3,3,571
1,1,Block3,29,Cued,0,0,NONMATCH,0,T,control,1,3,3,565
1,1,Block3,30,Cued,0,0,MATCH,d2,O,3back,1,4,4,1519
1,1,Block3,31,Cued,0,0,NONMATCH,0,C,control,1,3,3,384
1,1,Block3,32,Cued,0,0,NONMATCH,v2,L,4back,1,3,3,835
1,1,Block4,1,Cued,4,0,NONMATCH,v1,L,control,1,3,3,1454
1,1,Block4,2,Cued,4,0,NONMATCH,v1,K,control,1,3,3,1305
1,1,Block4,3,Cued,0,0,NONMATCH,0,W,control,1,3,3,896
1,1,Block4,4,Cued,0,0,NONMATCH,d1,Y,control,1,3,3,535
1,1,Block4,5,Cued,0,0,NONMATCH,v2,L,4back,1,3,3,886
1,1,Block4,6,Cued,0,0,NONMATCH,v2,K,4back,1,3,3,825
1,1,Block4,7,Cued,0,0,MATCH,d2,Y,3back,0,4,3,935
1,1,Block4,8,Cued,0,0,NONMATCH,0,R,control,1,3,3,961
1,1,Block4,9,Cued,0,0,NONMATCH,d1,P,control,1,3,3,1001
1,1,Block4,10,Cued,0,0,NONMATCH,0,U,control,1,3,3,1418
1,1,Block4,11,Cued,2,0,NONMATCH,t1,O,control,1,3,3,1152
1,1,Block4,12,Cued,0,0,MATCH,d2,P,3back,0,4,3,2735
1,1,Block4,13,Cued,0,0,NONMATCH,t2,O,2back,0,3,4,1303
1,1,Block4,14,Cued,0,0,NONMATCH,d1,E,control,1,3,3,1222
1,1,Block4,15,Cued,0,0,NONMATCH,0,T,control,1,3,3,940
1,1,Block4,16,Cued,4,0,NONMATCH,v1,S,control,1,3,3,1733
1,1,Block4,17,Cued,0,0,MATCH,d2,E,3back,0,4,3,1007
1,1,Block4,18,Cued,0,0,NONMATCH,0,B,control,1,3,3,568
1,1,Block4,19,Cued,2,0,NONMATCH,t1,Z,control,1,3,3,577
1,1,Block4,20,Cued,0,0,NONMATCH,v2,S,4back,1,3,3,1050
1,1,Block4,21,Cued,0,0,NONMATCH,t2,Z,2back,0,3,4,1486
1,1,Block4,22,Cued,2,0,NONMATCH,t1,C,control,1,3,3,812
1,1,Block4,23,Cued,4,0,NONMATCH,v1,A,control,1,3,3,722
1,1,Block4,24,Cued,0,0,NONMATCH,t2,C,2back,1,3,3,852
1,1,Block4,25,Cued,0,0,NONMATCH,0,D,control,1,3,3,1007
1,1,Block4,26,Cued,0,0,NONMATCH,d1,J,control,1,3,3,1275
1,1,Block4,27,Cued,0,0,NONMATCH,v2,A,4back,0,,,0
1,1,Block4,28,Cued,0,0,NONMATCH,0,G,control,1,3,3,125
1,1,Block4,29,Cued,0,0,MATCH,d2,J,3back,0,4,3,703
1,1,Block4,30,Cued,2,0,NONMATCH,t1,H,control,1,3,3,692
1,1,Block4,31,Cued,0,0,NONMATCH,0,M,control,1,3,3,1019
1,1,Block4,32,Cued,0,0,NONMATCH,t2,H,2back,1,3,3,1089
2,1,Block1,1,Uncued,0,0,NONMATCH,d1,W,control,1,4,4,1003
2,1,Block1,2,Uncued,4,0,NONMATCH,v1,U,control,1,4,4,970
2,1,Block1,3,Uncued,0,0,NONMATCH,0,O,control,1,4,4,1330
2,1,Block1,4,Uncued,0,0,MATCH,d2,W,3back,1,3,3,880
2,1,Block1,5,Uncued,2,0,NONMATCH,t1,Z,control,1,4,4,1355
2,1,Block1,6,Uncued,0,0,NONMATCH,v2,U,4back,0,4,,0
2,1,Block1,7,Uncued,0,0,NONMATCH,t2,Z,2back,0,4,3,1713
2,1,Block1,8,Uncued,0,0,NONMATCH,d1,A,control,1,4,4,1400
2,1,Block1,9,Uncued,0,0,NONMATCH,0,Y,control,1,4,4,1122
2,1,Block1,10,Uncued,2,0,NONMATCH,t1,T,control,1,4,4,1302
2,1,Block1,11,Uncued,0,0,MATCH,d2,A,3back,0,3,4,1482
2,1,Block1,12,Uncued,0,0,NONMATCH,t2,T,2back,0,4,,0
2,1,Block1,13,Uncued,0,0,NONMATCH,d1,J,control,1,4,4,922
2,1,Block1,14,Uncued,0,0,NONMATCH,0,L,control,1,4,4,1056
2,1,Block1,15,Uncued,4,0,NONMATCH,v1,S,control,1,4,4,866
2,1,Block1,16,Uncued,0,0,MATCH,d2,J,3back,0,3,4,1211
2,1,Block1,17,Uncued,0,0,NONMATCH,0,H,control,1,4,4,1802
2,1,Block1,18,Uncued,2,0,NONMATCH,t1,D,control,1,4,4,1782
2,1,Block1,19,Uncued,0,0,NONMATCH,v2,S,4back,0,4,3,806
2,1,Block1,20,Uncued,0,0,NONMATCH,t2,D,2back,1,4,4,2329
2,1,Block1,21,Uncued,0,0,NONMATCH,d1,P,control,1,4,4,710
2,1,Block1,22,Uncued,4,0,NONMATCH,v1,C,control,1,4,4,1447
2,1,Block1,23,Uncued,0,0,NONMATCH,0,K,control,1,4,4,1334
2,1,Block1,24,Uncued,0,0,MATCH,d2,P,3back,1,3,3,593
2,1,Block1,25,Uncued,2,0,NONMATCH,t1,R,control,1,4,4,942
2,1,Block1,26,Uncued,0,0,NONMATCH,v2,C,4back,1,4,4,1486
2,1,Block1,27,Uncued,0,0,NONMATCH,t2,R,2back,0,4,3,1878
2,1,Block1,28,Uncued,4,0,NONMATCH,v1,M,control,1,4,4,1633
2,1,Block1,29,Uncued,0,0,NONMATCH,0,G,control,1,4,4,842
2,1,Block1,30,Uncued,0,0,NONMATCH,0,B,control,1,4,4,1331
2,1,Block1,31,Uncued,0,0,NONMATCH,0,E,control,1,4,4,1064
2,1,Block1,32,Uncued,0,0,NONMATCH,v2,M,4back,0,4,,0
2,1,Block2,1,Uncued,4,0,NONMATCH,v1,L,control,1,4,4,1282
2,1,Block2,2,Uncued,2,0,NONMATCH,t1,K,control,1,4,4,514
2,1,Block2,3,Uncued,0,0,NONMATCH,0,O,control,1,4,4,621
2,1,Block2,4,Uncued,0,0,NONMATCH,t2,K,2back,1,4,4,1668
2,1,Block2,5,Uncued,0,0,NONMATCH,v2,L,4back,1,4,4,1293
2,1,Block2,6,Uncued,4,0,NONMATCH,v1,W,control,1,4,4,1549
2,1,Block2,7,Uncued,0,0,NONMATCH,0,B,control,1,4,4,1131
2,1,Block2,8,Uncued,0,0,NONMATCH,d1,H,control,1,4,4,1791
2,1,Block2,9,Uncued,0,0,NONMATCH,0,R,control,1,4,4,927
2,1,Block2,10,Uncued,0,0,NONMATCH,v2,W,4back,1,4,4,1770
2,1,Block2,11,Uncued,0,0,MATCH,d2,H,3back,1,3,3,1830
2,1,Block2,12,Uncued,2,0,NONMATCH,t1,T,control,1,4,4,1422
2,1,Block2,13,Uncued,0,0,NONMATCH,d1,A,control,1,4,4,1517
2,1,Block2,14,Uncued,0,0,NONMATCH,t2,T,2back,1,4,4,1240
2,1,Block2,15,Uncued,0,0,NONMATCH,0,E,control,1,4,4,1105
2,1,Block2,16,Uncued,0,0,MATCH,d2,A,3back,1,3,3,2180
2,1,Block2,17,Uncued,2,0,NONMATCH,t1,M,control,1,4,4,830
2,1,Block2,18,Uncued,4,0,NONMATCH,v1,C,control,1,4,4,1029
2,1,Block2,19,Uncued,0,0,NONMATCH,t2,M,2back,1,4,4,951
2,1,Block2,20,Uncued,0,0,NONMATCH,0,S,control,1,4,4,874
2,1,Block2,21,Uncued,0,0,NONMATCH,d1,Y,control,1,4,4,949
2,1,Block2,22,Uncued,0,0,NONMATCH,v2,C,4back,1,4,4,1146
2,1,Block2,23,Uncued,4,0,NONMATCH,v1,J,control,1,4,4,819
2,1,Block2,24,Uncued,0,0,MATCH,d2,Y,3back,1,3,3,629
2,1,Block2,25,Uncued,0,0,NONMATCH,0,U,control,1,4,4,954
2,1,Block2,26,Uncued,2,0,NONMATCH,t1,G,control,1,4,4,1015
2,1,Block2,27,Uncued,0,0,NONMATCH,v2,J,4back,1,4,4,1615
2,1,Block2,28,Uncued,0,0,NONMATCH,t2,G,2back,0,4,3,1196
2,1,Block2,29,Uncued,0,0,NONMATCH,d1,D,control,1,4,4,790
2,1,Block2,30,Uncued,0,0,NONMATCH,0,Z,control,1,4,4,937
2,1,Block2,31,Uncued,0,0,NONMATCH,0,P,control,1,4,4,915
2,1,Block2,32,Uncued,0,0,MATCH,d2,D,3back,1,3,3,430
2,1,Block3,1,Cued,0,0,NONMATCH,0,C,control,1,4,4,1691
2,1,Block3,2,Cued,2,0,NONMATCH,t1,T,control,1,4,4,1543
2,1,Block3,3,Cued,0,0,NONMATCH,d1,J,control,1,4,4,1748
2,1,Block3,4,Cued,0,0,NONMATCH,t2,T,2back,1,4,4,1132
2,1,Block3,5,Cued,4,0,NONMATCH,v1,K,control,1,4,4,1899
2,1,Block3,6,Cued,0,0,MATCH,d2,J,3back,1,3,3,1516
2,1,Block3,7,Cued,0,0,NONMATCH,0,Z,control,1,4,4,1171
2,1,Block3,8,Cued,2,0,NONMATCH,t1,W,control,1,4,4,1743
2,1,Block3,9,Cued,0,0,NONMATCH,v2,K,4back,1,4,4,1713
2,1,Block3,10,Cued,0,0,NONMATCH,t2,W,2back,1,4,4,1144
2,1,Block3,11,Cued,2,0,NONMATCH,t1,H,control,1,4,4,1719
2,1,Block3,12,Cued,0,0,NONMATCH,d1,S,control,1,4,4,1880
2,1,Block3,13,Cued,0,0,NONMATCH,t2,H,2back,1,4,4,2099
2,1,Block3,14,Cued,0,0,NONMATCH,0,M,control,1,4,4,890
2,1,Block3,15,Cued,0,0,MATCH,d2,S,3back,1,3,3,833
2,1,Block3,16,Cued,0,0,NONMATCH,d1,Y,control,1,4,4,940
2,1,Block3,17,Cued,4,0,NONMATCH,v1,L,control,1,4,4,849
2,1,Block3,18,Cued,0,0,NONMATCH,0,U,control,1,4,4,824
2,1,Block3,19,Cued,0,0,MATCH,d2,Y,3back,1,3,3,602
2,1,Block3,20,Cued,4,0,NONMATCH,v1,P,control,1,4,4,1402
2,1,Block3,21,Cued,0,0,NONMATCH,v2,L,4back,1,4,4,1930
2,1,Block3,22,Cued,0,0,NONMATCH,d1,D,control,1,4,4,1370
2,1,Block3,23,Cued,0,0,NONMATCH,0,E,control,1,4,4,1214
2,1,Block3,24,Cued,0,0,NONMATCH,v2,P,4back,0,4,3,1523
2,1,Block3,25,Cued,0,0,MATCH,d2,D,3back,0,3,4,1576
2,1,Block3,26,Cued,2,0,NONMATCH,t1,G,control,1,4,4,1157
2,1,Block3,27,Cued,4,0,NONMATCH,v1,R,control,1,4,4,1877
2,1,Block3,28,Cued,0,0,NONMATCH,t2,G,2back,1,4,4,2208
2,1,Block3,29,Cued,0,0,NONMATCH,0,B,control,1,4,4,1421
2,1,Block3,30,Cued,0,0,NONMATCH,0,A,control,1,4,4,1667
2,1,Block3,31,Cued,0,0,NONMATCH,v2,R,4back,1,4,4,1971
2,1,Block3,32,Cued,0,0,NONMATCH,0,O,control,0,4,,0
2,1,Block4,1,Cued,0,0,NONMATCH,0,G,control,1,4,4,1845
2,1,Block4,2,Cued,4,0,NONMATCH,v1,S,control,1,4,4,468
2,1,Block4,3,Cued,0,0,NONMATCH,0,Z,control,1,4,4,791
2,1,Block4,4,Cued,4,0,NONMATCH,v1,C,control,1,4,4,1375
2,1,Block4,5,Cued,0,0,NONMATCH,0,H,control,1,4,4,1209
2,1,Block4,6,Cued,0,0,NONMATCH,v2,S,4back,1,4,4,1586
2,1,Block4,7,Cued,0,0,NONMATCH,d1,M,control,1,4,4,1867
2,1,Block4,8,Cued,0,0,NONMATCH,v2,C,4back,1,4,4,1367
2,1,Block4,9,Cued,2,0,NONMATCH,t1,U,control,1,4,4,1390
2,1,Block4,10,Cued,0,0,MATCH,d2,M,3back,0,3,,0
2,1,Block4,11,Cued,0,0,NONMATCH,t2,U,2back,0,4,,0
2,1,Block4,12,Cued,0,0,NONMATCH,0,R,control,1,4,4,495
2,1,Block4,13,Cued,2,0,NONMATCH,t1,E,control,1,4,4,624
2,1,Block4,14,Cued,4,0,NONMATCH,v1,L,control,1,4,4,943
2,1,Block4,15,Cued,0,0,NONMATCH,t2,E,2back,1,4,4,1210
2,1,Block4,16,Cued,0,0,NONMATCH,d1,B,control,1,4,4,925
2,1,Block4,17,Cued,0,0,NONMATCH,0,P,control,1,4,4,895
2,1,Block4,18,Cued,0,0,NONMATCH,v2,L,4back,0,4,3,699
2,1,Block4,19,Cued,0,0,MATCH,d2,B,3back,0,3,4,1309
2,1,Block4,20,Cued,2,0,NONMATCH,t1,K,control,1,4,4,1246
2,1,Block4,21,Cued,4,0,NONMATCH,v1,A,control,1,4,4,1803
2,1,Block4,22,Cued,0,0,NONMATCH,t2,K,2back,1,4,4,981
2,1,Block4,23,Cued,0,0,NONMATCH,d1,W,control,1,4,4,1532
2,1,Block4,24,Cued,0,0,NONMATCH,0,J,control,1,4,4,1736
2,1,Block4,25,Cued,0,0,NONMATCH,v2,A,4back,0,4,3,1667
2,1,Block4,26,Cued,0,0,MATCH,d2,W,3back,0,3,4,1570
2,1,Block4,27,Cued,0,0,NONMATCH,d1,T,control,1,4,4,1472
2,1,Block4,28,Cued,0,0,NONMATCH,0,O,control,1,4,4,1531
2,1,Block4,29,Cued,2,0,NONMATCH,t1,Y,control,1,4,4,1615
2,1,Block4,30,Cued,0,0,MATCH,d2,T,3back,1,3,3,1336
2,1,Block4,31,Cued,0,0,NONMATCH,t2,Y,2back,1,4,4,1418
2,1,Block4,32,Cued,0,0,NONMATCH,0,D,control,1,4,4,654
3,1,Block1,1,Uncued,0,0,NONMATCH,0,B,control,1,3,3,491
3,1,Block1,2,Uncued,0,0,NONMATCH,d1,Y,control,1,3,3,407
3,1,Block1,3,Uncued,0,0,NONMATCH,0,G,control,1,3,3,333
3,1,Block1,4,Uncued,2,0,NONMATCH,t1,Z,control,1,3,3,497
3,1,Block1,5,Uncued,0,0,MATCH,d2,Y,3back,1,4,4,706
3,1,Block1,6,Uncued,0,0,NONMATCH,t2,Z,2back,0,3,4,775
3,1,Block1,7,Uncued,4,0,NONMATCH,v1,A,control,1,3,3,502
3,1,Block1,8,Uncued,2,0,NONMATCH,t1,L,control,1,3,3,383
3,1,Block1,9,Uncued,0,0,NONMATCH,0,D,control,1,3,3,479
3,1,Block1,10,Uncued,0,0,NONMATCH,t2,L,2back,0,3,4,689
3,1,Block1,11,Uncued,0,0,NONMATCH,v2,A,4back,1,3,3,374
3,1,Block1,12,Uncued,2,0,NONMATCH,t1,C,control,1,3,3,600
3,1,Block1,13,Uncued,4,0,NONMATCH,v1,T,control,1,3,3,362
3,1,Block1,14,Uncued,0,0,NONMATCH,t2,C,2back,0,3,4,552
3,1,Block1,15,Uncued,0,0,NONMATCH,0,S,control,1,3,3,483
3,1,Block1,16,Uncued,2,0,NONMATCH,t1,E,control,1,3,3,465
3,1,Block1,17,Uncued,0,0,NONMATCH,v2,T,4back,1,3,3,369
3,1,Block1,18,Uncued,0,0,NONMATCH,t2,E,2back,0,3,4,964
3,1,Block1,19,Uncued,0,0,NONMATCH,d1,M,control,1,3,3,441
3,1,Block1,20,Uncued,0,0,NONMATCH,0,W,control,1,3,3,619
3,1,Block1,21,Uncued,0,0,NONMATCH,d1,K,control,1,3,3,552
3,1,Block1,22,Uncued,0,0,MATCH,d2,M,3back,1,4,4,502
3,1,Block1,23,Uncued,4,0,NONMATCH,v1,O,control,1,3,3,438
3,1,Block1,24,Uncued,0,0,MATCH,d2,K,3back,1,4,4,510
3,1,Block1,25,Uncued,4,0,NONMATCH,v1,R,control,1,3,3,391
3,1,Block1,26,Uncued,0,0,NONMATCH,0,U,control,1,3,3,320
3,1,Block1,27,Uncued,0,0,NONMATCH,v2,O,4back,1,3,3,431
3,1,Block1,28,Uncued,0,0,NONMATCH,d1,J,control,1,3,3,699
3,1,Block1,29,Uncued,0,0,NONMATCH,v2,R,4back,1,3,3,989
3,1,Block1,30,Uncued,0,0,NONMATCH,0,P,control,1,3,3,797
3,1,Block1,31,Uncued,0,0,MATCH,d2,J,3back,0,4,3,966
3,1,Block1,32,Uncued,0,0,NONMATCH,0,H,control,1,3,3,422
3,1,Block2,1,Uncued,0,0,NONMATCH,0,J,control,1,3,3,538
3,1,Block2,2,Uncued,0,0,NONMATCH,d1,D,control,1,3,3,329
3,1,Block2,3,Uncued,4,0,NONMATCH,v1,B,control,1,3,3,667
3,1,Block2,4,Uncued,0,0,NONMATCH,0,E,control,1,3,3,867
3,1,Block2,5,Uncued,0,0,MATCH,d2,D,3back,1,4,4,898
3,1,Block2,6,Uncued,2,0,NONMATCH,t1,U,control,1,3,3,506
3,1,Block2,7,Uncued,0,0,NONMATCH,v2,B,4back,1,3,3,814
3,1,Block2,8,Uncued,0,0,NONMATCH,t2,U,2back,0,3,4,686
3,1,Block2,9,Uncued,0,0,NONMATCH,d1,G,control,1,3,3,524
3,1,Block2,10,Uncued,4,0,NONMATCH,v1,T,control,1,3,3,880
3,1,Block2,11,Uncued,0,0,NONMATCH,0,K,control,1,3,3,540
3,1,Block2,12,Uncued,0,0,MATCH,d2,G,3back,1,4,4,625
3,1,Block2,13,Uncued,4,0,NONMATCH,v1,R,control,1,3,3,620
3,1,Block2,14,Uncued,0,0,NONMATCH,v2,T,4back,0,3,4,982
3,1,Block2,15,Uncued,0,0,NONMATCH,0,L,control,1,3,3,330
3,1,Block2,16,Uncued,4,0,NONMATCH,v1,O,control,1,3,3,439
3,1,Block2,17,Uncued,0,0,NONMATCH,v2,R,4back,1,3,3,837
3,1,Block2,18,Uncued,0,0,NONMATCH,d1,S,control,1,3,3,482
3,1,Block2,19,Uncued,0,0,NONMATCH,0,C,control,1,3,3,553
3,1,Block2,20,Uncued,0,0,NONMATCH,v2,O,4back,0,3,4,684
3,1,Block2,21,Uncued,0,0,MATCH,d2,S,3back,1,4,4,907
3,1,Block2,22,Uncued,2,0,NONMATCH,t1,H,control,1,3,3,546
3,1,Block2,23,Uncued,0,0,NONMATCH,d1,Y,control,1,3,3,1001
3,1,Block2,24,Uncued,0,0,NONMATCH,t2,H,2back,1,3,3,1289
3,1,Block2,25,Uncued,0,0,NONMATCH,0,A,control,1,3,3,808
3,1,Block2,26,Uncued,0,0,MATCH,d2,Y,3back,0,4,3,725
3,1,Block2,27,Uncued,2,0,NONMATCH,t1,P,control,1,3,3,1233
3,1,Block2,28,Uncued,0,0,NONMATCH,0,Z,control,1,3,3,621
3,1,Block2,29,Uncued,0,0,NONMATCH,t2,P,2back,1,3,3,1168
3,1,Block2,30,Uncued,2,0,NONMATCH,t1,M,control,1,3,3,983
3,1,Block2,31,Uncued,0,0,NONMATCH,0,W,control,1,3,3,505
3,1,Block2,32,Uncued,0,0,NONMATCH,t2,M,2back,1,3,3,930
3,1,Block3,1,Cued,0,0,NONMATCH,0,J,control,1,3,3,535
3,1,Block3,2,Cued,0,0,NONMATCH,d1,Y,control,1,3,3,577
3,1,Block3,3,Cued,0,0,NONMATCH,0,A,control,1,3,3,501
3,1,Block3,4,Cued,4,0,NONMATCH,v1,G,control,1,3,3,717
3,1,Block3,5,Cued,0,0,MATCH,d2,Y,3back,0,4,3,839
3,1,Block3,6,Cued,0,0,NONMATCH,0,W,control,1,3,3,544
3,1,Block3,7,Cued,2,0,NONMATCH,t1,R,control,1,3,3,1197
3,1,Block3,8,Cued,0,0,NONMATCH,v2,G,4back,1,3,3,1139
3,1,Block3,9,Cued,0,0,NONMATCH,t2,R,2back,0,3,4,378
3,1,Block3,10,Cued,4,0,NONMATCH,v1,U,control,1,3,3,781
3,1,Block3,11,Cued,0,0,NONMATCH,0,C,control,1,3,3,507
3,1,Block3,12,Cued,4,0,NONMATCH,v1,Z,control,1,3,3,328
3,1,Block3,13,Cued,0,0,NONMATCH,0,M,control,1,3,3,354
3,1,Block3,14,Cued,0,0,NONMATCH,v2,U,4back,1,3,3,536
3,1,Block3,15,Cued,2,0,NONMATCH,t1,P,control,1,3,3,582
3,1,Block3,16,Cued,0,0,NONMATCH,v2,Z,4back,0,3,4,641
3,1,Block3,17,Cued,0,0,NONMATCH,t2,P,2back,1,3,3,534
3,1,Block3,18,Cued,4,0,NONMATCH,v1,D,control,1,3,3,705
3,1,Block3,19,Cued,0,0,NONMATCH,0,H,control,1,3,3,513
3,1,Block3,20,Cued,0,0,NONMATCH,d1,L,control,1,3,3,665
3,1,Block3,21,Cued,0,0,NONMATCH,0,B,control,1,3,3,548
3,1,Block3,22,Cued,0,0,NONMATCH,v2,D,4back,0,3,4,890
3,1,Block3,23,Cued,0,0,MATCH,d2,L,3back,0,4,3,572
3,1,Block3,24,Cued,2,0,NONMATCH,t1,T,control,1,3,3,1014
3,1,Block3,25,Cued,2,0,NONMATCH,t1,K,control,1,3,3,1036
3,1,Block3,26,Cued,0,0,NONMATCH,t2,T,2back,0,3,4,818
3,1,Block3,27,Cued,0,0,NONMATCH,t2,K,2back,0,3,4,1112
3,1,Block3,28,Cued,0,0,NONMATCH,d1,E,control,1,3,3,972
3,1,Block3,29,Cued,0,0,NONMATCH,d1,O,control,1,3,3,1098
3,1,Block3,30,Cued,0,0,NONMATCH,0,S,control,1,3,3,573
3,1,Block3,31,Cued,0,0,MATCH,d2,E,3back,1,4,4,930
3,1,Block3,32,Cued,0,0,MATCH,d2,O,3back,0,4,3,626
3,1,Block4,1,Cued,0,0,NONMATCH,0,L,control,1,3,3,924
3,1,Block4,2,Cued,0,0,NONMATCH,0,K,control,1,3,3,530
3,1,Block4,3,Cued,0,0,NONMATCH,d1,T,control,1,3,3,495
3,1,Block4,4,Cued,0,0,NONMATCH,0,Y,control,1,3,3,628
3,1,Block4,5,Cued,2,0,NONMATCH,t1,P,control,1,3,3,1412
3,1,Block4,6,Cued,0,0,MATCH,d2,T,3back,1,4,4,591
3,1,Block4,7,Cued,0,0,NONMATCH,t2,P,2back,0,3,4,736
3,1,Block4,8,Cued,4,0,NONMATCH,v1,Z,control,1,3,3,536
3,1,Block4,9,Cued,4,0,NONMATCH,v1,W,control,1,3,3,565
3,1,Block4,10,Cued,0,0,NONMATCH,0,B,control,1,3,3,506
3,1,Block4,11,Cued,0,0,NONMATCH,0,C,control,1,3,3,696
3,1,Block4,12,Cued,0,0,NONMATCH,v2,Z,4back,1,3,3,1513
3,1,Block4,13,Cued,0,0,NONMATCH,v2,W,4back,0,3,4,493
3,1,Block4,14,Cued,2,0,NONMATCH,t1,S,control,1,3,3,486
3,1,Block4,15,Cued,0,0,NONMATCH,d1,E,control,1,3,3,517
3,1,Block4,16,Cued,0,0,NONMATCH,t2,S,2back,1,3,3,1020
3,1,Block4,17,Cued,2,0,NONMATCH,t1,R,control,1,3,3,897
3,1,Block4,18,Cued,0,0,MATCH,d2,E,3back,1,4,4,726
3,1,Block4,19,Cued,0,0,NONMATCH,t2,R,2back,0,3,4,913
3,1,Block4,20,Cued,0,0,NONMATCH,d1,G,control,1,3,3,507
3,1,Block4,21,Cued,4,0,NONMATCH,v1,O,control,1,3,3,844
3,1,Block4,22,Cued,0,0,NONMATCH,0,M,control,1,3,3,843
3,1,Block4,23,Cued,0,0,MATCH,d2,G,3back,1,4,4,631
3,1,Block4,24,Cued,4,0,NONMATCH,v1,J,control,1,3,3,894
3,1,Block4,25,Cued,0,0,NONMATCH,v2,O,4back,1,3,3,1380
3,1,Block4,26,Cued,0,0,NONMATCH,0,A,control,1,3,3,793
3,1,Block4,27,Cued,0,0,NONMATCH,d1,D,control,1,3,3,526
3,1,Block4,28,Cued,0,0,NONMATCH,v2,J,4back,1,3,3,594
3,1,Block4,29,Cued,2,0,NONMATCH,t1,H,control,1,3,3,547
3,1,Block4,30,Cued,0,0,MATCH,d2,D,3back,1,4,4,483
3,1,Block4,31,Cued,0,0,NONMATCH,t2,H,2back,1,3,3,731
3,1,Block4,32,Cued,0,0,NONMATCH,0,U,control,1,3,3,819
4,1,Block1,1,Uncued,0,0,NONMATCH,0,T,control,1,4,4,296
4,1,Block1,2,Uncued,0,0,NONMATCH,d1,C,control,1,4,4,291
4,1,Block1,3,Uncued,4,0,NONMATCH,v1,Y,control,1,4,4,366
4,1,Block1,4,Uncued,0,0,NONMATCH,0,H,control,0,4,3,794
4,1,Block1,5,Uncued,0,0,MATCH,d2,C,3back,0,3,4,478
4,1,Block1,6,Uncued,4,0,NONMATCH,v1,S,control,1,4,4,708
4,1,Block1,7,Uncued,0,0,NONMATCH,v2,Y,4back,0,4,3,840
4,1,Block1,8,Uncued,0,0,NONMATCH,0,G,control,1,4,4,882
4,1,Block1,9,Uncued,2,0,NONMATCH,t1,O,control,1,4,4,727
4,1,Block1,10,Uncued,0,0,NONMATCH,v2,S,4back,1,4,4,740
4,1,Block1,11,Uncued,0,0,NONMATCH,t2,O,2back,0,4,3,857
4,1,Block1,12,Uncued,4,0,NONMATCH,v1,L,control,1,4,4,398
4,1,Block1,13,Uncued,2,0,NONMATCH,t1,E,control,0,4,3,492
4,1,Block1,14,Uncued,0,0,NONMATCH,0,J,control,1,4,4,512
4,1,Block1,15,Uncued,0,0,NONMATCH,t2,E,2back,1,4,4,692
4,1,Block1,16,Uncued,0,0,NONMATCH,v2,L,4back,0,4,3,1463
4,1,Block1,17,Uncued,2,0,NONMATCH,t1,D,control,1,4,4,1343
4,1,Block1,18,Uncued,2,0,NONMATCH,t1,B,control,1,4,4,991
4,1,Block1,19,Uncued,0,0,NONMATCH,t2,D,2back,0,4,3,1163
4,1,Block1,20,Uncued,0,0,NONMATCH,t2,B,2back,0,4,3,847
4,1,Block1,21,Uncued,0,0,NONMATCH,d1,Z,control,1,4,4,718
4,1,Block1,22,Uncued,0,0,NONMATCH,0,R,control,1,4,4,1021
4,1,Block1,23,Uncued,4,0,NONMATCH,v1,W,control,1,4,4,811
4,1,Block1,24,Uncued,0,0,MATCH,d2,Z,3back,1,3,3,753
4,1,Block1,25,Uncued,0,0,NONMATCH,0,U,control,1,4,4,617
4,1,Block1,26,Uncued,0,0,NONMATCH,d1,M,control,1,4,4,917
4,1,Block1,27,Uncued,0,0,NONMATCH,v2,W,4back,1,4,4,1264
4,1,Block1,28,Uncued,0,0,NONMATCH,d1,K,control,1,4,4,905
4,1,Block1,29,Uncued,0,0,MATCH,d2,M,3back,0,3,4,887
4,1,Block1,30,Uncued,0,0,NONMATCH,0,P,control,1,4,4,946
4,1,Block1,31,Uncued,0,0,MATCH,d2,K,3back,1,3,3,648
4,1,Block1,32,Uncued,0,0,NONMATCH,0,A,control,1,4,4,1043
4,1,Block2,1,Uncued,2,0,NONMATCH,t1,W,control,1,4,4,493
4,1,Block2,2,Uncued,0,0,NONMATCH,d1,K,control,1,4,4,369
4,1,Block2,3,Uncued,0,0,NONMATCH,t2,W,2back,1,4,4,347
4,1,Block2,4,Uncued,0,0,NONMATCH,0,U,control,1,4,4,936
4,1,Block2,5,Uncued,0,0,MATCH,d2,K,3back,1,3,3,872
4,1,Block2,6,Uncued,0,0,NONMATCH,d1,A,control,1,4,4,531
4,1,Block2,7,Uncued,0,0,NONMATCH,0,J,control,1,4,4,880
4,1,Block2,8,Uncued,2,0,NONMATCH,t1,Z,control,1,4,4,619
4,1,Block2,9,Uncued,0,0,MATCH,d2,A,3back,1,3,3,716
4,1,Block2,10,Uncued,0,0,NONMATCH,t2,Z,2back,0,4,3,1148
4,1,Block2,11,Uncued,0,0,NONMATCH,d1,E,control,1,4,4,980
4,1,Block2,12,Uncued,0,0,NONMATCH,d1,M,control,1,4,4,884
4,1,Block2,13,Uncued,0,0,NONMATCH,0,O,control,0,4,3,886
4,1,Block2,14,Uncued,0,0,MATCH,d2,E,3back,0,3,4,1261
4,1,Block2,15,Uncued,0,0,MATCH,d2,M,3back,0,3,4,1007
4,1,Block2,16,Uncued,4,0,NONMATCH,v1,P,control,1,4,4,1056
4,1,Block2,17,Uncued,0,0,NONMATCH,0,S,control,1,4,4,912
4,1,Block2,18,Uncued,0,0,NONMATCH,0,B,control,1,4,4,650
4,1,Block2,19,Uncued,2,0,NONMATCH,t1,L,control,1,4,4,766
4,1,Block2,20,Uncued,0,0,NONMATCH,v2,P,4back,0,4,3,1168
4,1,Block2,21,Uncued,0,0,NONMATCH,t2,L,2back,0,4,3,889
4,1,Block2,22,Uncued,4,0,NONMATCH,v1,R,control,1,4,4,656
4,1,Block2,23,Uncued,2,0,NONMATCH,t1,D,control,1,4,4,765
4,1,Block2,24,Uncued,0,0,NONMATCH,0,C,control,1,4,4,860
4,1,Block2,25,Uncued,0,0,NONMATCH,t2,D,2back,0,4,3,883
4,1,Block2,26,Uncued,0,0,NONMATCH,v2,R,4back,0,4,3,828
4,1,Block2,27,Uncued,4,0,NONMATCH,v1,H,control,1,4,4,773
4,1,Block2,28,Uncued,4,0,NONMATCH,v1,T,control,1,4,4,906
4,1,Block2,29,Uncued,0,0,NONMATCH,0,G,control,1,4,4,922
4,1,Block2,30,Uncued,0,0,NONMATCH,0,Y,control,1,4,4,762
4,1,Block2,31,Uncued,0,0,NONMATCH,v2,H,4back,0,4,3,1205
4,1,Block2,32,Uncued,0,0,NONMATCH,v2,T,4back,1,4,4,756
4,1,Block3,1,Cued,0,0,NONMATCH,0,H,control,1,4,4,817
4,1,Block3,2,Cued,2,0,NONMATCH,t1,G,control,1,4,4,486
4,1,Block3,3,Cued,0,0,NONMATCH,d1,K,control,1,4,4,433
4,1,Block3,4,Cued,0,0,NONMATCH,t2,G,2back,1,4,4,676
4,1,Block3,5,Cued,4,0,NONMATCH,v1,A,control,1,4,4,1080
4,1,Block3,6,Cued,0,0,MATCH,d2,K,3back,1,3,3,1063
4,1,Block3,7,Cued,0,0,NONMATCH,0,S,control,1,4,4,1224
4,1,Block3,8,Cued,4,0,NONMATCH,v1,L,control,1,4,4,1194
4,1,Block3,9,Cued,0,0,NONMATCH,v2,A,4back,1,4,4,958
4,1,Block3,10,Cued,0,0,NONMATCH,d1,D,control,1,4,4,1045
4,1,Block3,11,Cued,0,0,NONMATCH,0,C,control,1,4,4,800
4,1,Block3,12,Cued,0,0,NONMATCH,v2,L,4back,1,4,4,1422
4,1,Block3,13,Cued,0,0,MATCH,d2,D,3back,1,3,3,927
4,1,Block3,14,Cued,4,0,NONMATCH,v1,J,control,1,4,4,1004
4,1,Block3,15,Cued,0,0,NONMATCH,0,B,control,1,4,4,931
4,1,Block3,16,Cued,0,0,NONMATCH,d1,Y,control,1,4,4,945
4,1,Block3,17,Cued,0,0,NONMATCH,0,T,control,1,4,4,1195
4,1,Block3,18,Cued,0,0,NONMATCH,v2,J,4back,0,4,3,736
4,1,Block3,19,Cued,0,0,MATCH,d2,Y,3back,1,3,3,828
4,1,Block3,20,Cued,2,0,NONMATCH,t1,O,control,1,4,4,883
4,1,Block3,21,Cued,0,0,NONMATCH,0,E,control,1,4,4,683
4,1,Block3,22,Cued,0,0,NONMATCH,t2,O,2back,0,4,3,1038
4,1,Block3,23,Cued,2,0,NONMATCH,t1,U,control,1,4,4,1376
4,1,Block3,24,Cued,2,0,NONMATCH,t1,P,control,1,4,4,990
4,1,Block3,25,Cued,0,0,NONMATCH,t2,U,2back,1,4,4,986
4,1,Block3,26,Cued,0,0,NONMATCH,t2,P,2back,0,4,3,976
4,1,Block3,27,Cued,0,0,NONMATCH,d1,W,control,1,4,4,1031
4,1,Block3,28,Cued,4,0,NONMATCH,v1,Z,control,1,4,4,1105
4,1,Block3,29,Cued,0,0,NONMATCH,0,R,control,1,4,4,705
4,1,Block3,30,Cued,0,0,MATCH,d2,W,3back,1,3,3,773
4,1,Block3,31,Cued,0,0,NONMATCH,0,M,control,1,4,4,923
4,1,Block3,32,Cued,0,0,NONMATCH,v2,Z,4back,0,4,3,887
4,1,Block4,1,Cued,0,0,NONMATCH,d1,H,control,1,4,4,808
4,1,Block4,2,Cued,0,0,NONMATCH,0,K,control,1,4,4,407
4,1,Block4,3,Cued,4,0,NONMATCH,v1,Z,control,1,4,4,495
4,1,Block4,4,Cued,0,0,MATCH,d2,H,3back,1,3,3,1014
4,1,Block4,5,Cued,0,0,NONMATCH,0,S,control,1,4,4,745
4,1,Block4,6,Cued,0,0,NONMATCH,d1,D,control,1,4,4,955
4,1,Block4,7,Cued,0,0,NONMATCH,v2,Z,4back,1,4,4,1495
4,1,Block4,8,Cued,2,0,NONMATCH,t1,E,control,1,4,4,897
4,1,Block4,9,Cued,0,0,MATCH,d2,D,3back,1,3,3,854
4,1,Block4,10,Cued,0,0,NONMATCH,t2,E,2back,0,4,3,1153
4,1,Block4,11,Cued,4,0,NONMATCH,v1,U,control,1,4,4,748
4,1,Block4,12,Cued,0,0,NONMATCH,0,C,control,1,4,4,982
4,1,Block4,13,Cued,4,0,NONMATCH,v1,O,control,1,4,4,964
4,1,Block4,14,Cued,0,0,NONMATCH,0,P,control,1,4,4,1305
4,1,Block4,15,Cued,0,0,NONMATCH,v2,U,4back,0,4,3,868
4,1,Block4,16,Cued,0,0,NONMATCH,d1,M,control,1,4,4,1019
4,1,Block4,17,Cued,0,0,NONMATCH,v2,O,4back,0,4,3,1039
4,1,Block4,18,Cued,4,0,NONMATCH,v1,L,control,1,4,4,805
4,1,Block4,19,Cued,0,0,MATCH,d2,M,3back,1,3,3,855
4,1,Block4,20,Cued,0,0,NONMATCH,0,J,control,1,4,4,664
4,1,Block4,21,Cued,2,0,NONMATCH,t1,Y,control,1,4,4,790
4,1,Block4,22,Cued,0,0,NONMATCH,v2,L,4back,1,4,4,1086
4,1,Block4,23,Cued,0,0,NONMATCH,t2,Y,2back,0,4,3,844
4,1,Block4,24,Cued,0,0,NONMATCH,0,T,control,1,4,4,804
4,1,Block4,25,Cued,0,0,NONMATCH,d1,W,control,1,4,4,950
4,1,Block4,26,Cued,0,0,NONMATCH,0,G,control,1,4,4,1208
4,1,Block4,27,Cued,2,0,NONMATCH,t1,B,control,1,4,4,724
4,1,Block4,28,Cued,0,0,MATCH,d2,W,3back,1,3,3,846
4,1,Block4,29,Cued,0,0,NONMATCH,t2,B,2back,0,4,3,1055
4,1,Block4,30,Cued,2,0,NONMATCH,t1,R,control,1,4,4,609
4,1,Block4,31,Cued,0,0,NONMATCH,0,A,control,1,4,4,617
4,1,Block4,32,Cued,0,0,NONMATCH,t2,R,2back,0,4,3,1738
5,1,Block1,1,Uncued,0,0,NONMATCH,0,M,control,1,3,3,693
5,1,Block1,2,Uncued,0,0,NONMATCH,0,P,control,1,3,3,753
5,1,Block1,3,Uncued,0,0,NONMATCH,d1,S,control,1,3,3,708
5,1,Block1,4,Uncued,4,0,NONMATCH,v1,G,control,1,3,3,810
5,1,Block1,5,Uncued,0,0,NONMATCH,0,W,control,1,3,3,967
5,1,Block1,6,Uncued,0,0,MATCH,d2,S,3back,0,4,3,2309
5,1,Block1,7,Uncued,0,0,NONMATCH,d1,J,control,1,3,3,1708
5,1,Block1,8,Uncued,0,0,NONMATCH,v2,G,4back,1,3,3,1317
5,1,Block1,9,Uncued,2,0,NONMATCH,t1,B,control,1,3,3,651
5,1,Block1,10,Uncued,0,0,MATCH,d2,J,3back,0,4,3,1498
5,1,Block1,11,Uncued,0,0,NONMATCH,t2,B,2back,0,3,4,1262
5,1,Block1,12,Uncued,4,0,NONMATCH,v1,L,control,1,3,3,1230
5,1,Block1,13,Uncued,2,0,NONMATCH,t1,K,control,1,3,3,1124
5,1,Block1,14,Uncued,0,0,NONMATCH,0,D,control,1,3,3,1050
5,1,Block1,15,Uncued,0,0,NONMATCH,t2,K,2back,1,3,3,1471
5,1,Block1,16,Uncued,0,0,NONMATCH,v2,L,4back,0,3,4,1414
5,1,Block1,17,Uncued,0,0,NONMATCH,d1,E,control,1,3,3,1080
5,1,Block1,18,Uncued,4,0,NONMATCH,v1,A,control,1,3,3,1063
5,1,Block1,19,Uncued,0,0,NONMATCH,0,Z,control,1,3,3,923
5,1,Block1,20,Uncued,0,0,MATCH,d2,E,3back,0,4,3,1501
5,1,Block1,21,Uncued,2,0,NONMATCH,t1,R,control,1,3,3,1919
5,1,Block1,22,Uncued,0,0,NONMATCH,v2,A,4back,0,3,4,1413
5,1,Block1,23,Uncued,0,0,NONMATCH,t2,R,2back,1,3,3,1543
5,1,Block1,24,Uncued,4,0,NONMATCH,v1,H,control,1,3,3,879
5,1,Block1,25,Uncued,0,0,NONMATCH,0,Y,control,1,3,3,925
5,1,Block1,26,Uncued,0,0,NONMATCH,d1,T,control,1,3,3,745
5,1,Block1,27,Uncued,0,0,NONMATCH,0,C,control,1,3,3,930
5,1,Block1,28,Uncued,0,0,NONMATCH,v2,H,4back,0,3,4,1187
5,1,Block1,29,Uncued,0,0,MATCH,d2,T,3back,0,4,,0
5,1,Block1,30,Uncued,2,0,NONMATCH,t1,O,control,1,3,3,1111
5,1,Block1,31,Uncued,0,0,NONMATCH,0,U,control,1,3,3,689
5,1,Block1,32,Uncued,0,0,NONMATCH,t2,O,2back,1,3,3,1492
5,1,Block2,1,Uncued,4,0,NONMATCH,v1,J,control,1,3,3,665
5,1,Block2,2,Uncued,2,0,NONMATCH,t1,R,control,1,3,3,682
5,1,Block2,3,Uncued,0,0,NONMATCH,0,O,control,1,3,3,590
5,1,Block2,4,Uncued,0,0,NONMATCH,t2,R,2back,1,3,3,1229
5,1,Block2,5,Uncued,0,0,NONMATCH,v2,J,4back,0,3,4,1043
5,1,Block2,6,Uncued,0,0,NONMATCH,d1,E,control,1,3,3,909
5,1,Block2,7,Uncued,0,0,NONMATCH,0,H,control,1,3,3,990
5,1,Block2,8,Uncued,2,0,NONMATCH,t1,G,control,1,3,3,808
5,1,Block2,9,Uncued,0,0,MATCH,d2,E,3back,1,4,4,1484
5,1,Block2,10,Uncued,0,0,NONMATCH,t2,G,2back,1,3,3,1999
5,1,Block2,11,Uncued,0,0,NONMATCH,d1,W,control,1,3,3,1062
5,1,Block2,12,Uncued,0,0,NONMATCH,0,M,control,1,3,3,1021
5,1,Block2,13,Uncued,0,0,NONMATCH,0,S,control,1,3,3,1286
5,1,Block2,14,Uncued,0,0,MATCH,d2,W,3back,1,4,4,2034
5,1,Block2,15,Uncued,2,0,NONMATCH,t1,Y,control,1,3,3,697
5,1,Block2,16,Uncued,4,0,NONMATCH,v1,U,control,1,3,3,866
5,1,Block2,17,Uncued,0,0,NONMATCH,t2,Y,2back,1,3,3,833
5,1,Block2,18,Uncued,0,0,NONMATCH,0,K,control,1,3,3,872
5,1,Block2,19,Uncued,2,0,NONMATCH,t1,T,control,1,3,3,918
5,1,Block2,20,Uncued,0,0,NONMATCH,v2,U,4back,0,3,4,1061
5,1,Block2,21,Uncued,0,0,NONMATCH,t2,T,2back,1,3,3,1548
5,1,Block2,22,Uncued,0,0,NONMATCH,d1,Z,control,1,3,3,1070
5,1,Block2,23,Uncued,4,0,NONMATCH,v1,D,control,1,3,3,1095
5,1,Block2,24,Uncued,0,0,NONMATCH,0,B,control,1,3,3,739
5,1,Block2,25,Uncued,0,0,MATCH,d2,Z,3back,1,4,4,2004
5,1,Block2,26,Uncued,4,0,NONMATCH,v1,P,control,1,3,3,977
5,1,Block2,27,Uncued,0,0,NONMATCH,v2,D,4back,1,3,3,820
5,1,Block2,28,Uncued,0,0,NONMATCH,0,L,control,1,3,3,961
5,1,Block2,29,Uncued,0,0,NONMATCH,d1,A,control,1,3,3,732
5,1,Block2,30,Uncued,0,0,NONMATCH,v2,P,4back,0,3,4,1086
5,1,Block2,31,Uncued,0,0,NONMATCH,0,C,control,1,3,3,823
5,1,Block2,32,Uncued,0,0,MATCH,d2,A,3back,1,4,4,899
5,1,Block3,1,Cued,0,0,NONMATCH,0,P,control,1,3,3,740
5,1,Block3,2,Cued,0,0,NONMATCH,0,B,control,1,3,3,614
5,1,Block3,3,Cued,0,0,NONMATCH,d1,G,control,1,3,3,618
5,1,Block3,4,Cued,4,0,NONMATCH,v1,K,control,1,3,3,1122
5,1,Block3,5,Cued,0,0,NONMATCH,0,S,control,1,3,3,853
5,1,Block3,6,Cued,0,0,MATCH,d2,G,3back,0,4,3,722
5,1,Block3,7,Cued,0,0,NONMATCH,d1,J,control,1,3,3,724
5,1,Block3,8,Cued,0,0,NONMATCH,v2,K,4back,1,3,3,666
5,1,Block3,9,Cued,0,0,NONMATCH,0,L,control,1,3,3,609
5,1,Block3,10,Cued,0,0,MATCH,d2,J,3back,0,4,3,1519
5,1,Block3,11,Cued,4,0,NONMATCH,v1,Y,control,1,3,3,1218
5,1,Block3,12,Cued,2,0,NONMATCH,t1,R,control,1,3,3,772
5,1,Block3,13,Cued,0,0,NONMATCH,0,Z,control,1,3,3,945
5,1,Block3,14,Cued,0,0,NONMATCH,t2,R,2back,1,3,3,719
5,1,Block3,15,Cued,0,0,NONMATCH,v2,Y,4back,0,3,4,867
5,1,Block3,16,Cued,2,0,NONMATCH,t1,C,control,1,3,3,1546
5,1,Block3,17,Cued,0,0,NONMATCH,d1,O,control,1,3,3,1530
5,1,Block3,18,Cued,0,0,NONMATCH,t2,C,2back,1,3,3,1103
5,1,Block3,19,Cued,4,0,NONMATCH,v1,W,control,1,3,3,650
5,1,Block3,20,Cued,0,0,MATCH,d2,O,3back,0,4,3,887
5,1,Block3,21,Cued,0,0,NONMATCH,0,H,control,1,3,3,1108
5,1,Block3,22,Cued,2,0,NONMATCH,t1,T,control,1,3,3,1552
5,1,Block3,23,Cued,0,0,NONMATCH,v2,W,4back,1,3,3,1111
5,1,Block3,24,Cued,0,0,NONMATCH,t2,T,2back,1,3,3,1314
5,1,Block3,25,Cued,4,0,NONMATCH,v1,E,control,1,3,3,1266
5,1,Block3,26,Cued,2,0,NONMATCH,t1,U,control,1,3,3,782
5,1,Block3,27,Cued,0,0,NONMATCH,d1,D,control,1,3,3,652
5,1,Block3,28,Cued,0,0,NONMATCH,t2,U,2back,0,3,4,907
5,1,Block3,29,Cued,0,0,NONMATCH,v2,E,4back,1,3,3,1540
5,1,Block3,30,Cued,0,0,MATCH,d2,D,3back,0,4,3,1134
5,1,Block3,31,Cued,0,0,NONMATCH,0,M,control,1,3,3,1026
5,1,Block3,32,Cued,0,0,NONMATCH,0,A,control,1,3,3,800
5,1,Block4,1,Cued,2,0,NONMATCH,t1,A,control,1,3,3,737
5,1,Block4,2,Cued,0,0,NONMATCH,d1,O,control,1,3,3,538
5,1,Block4,3,Cued,0,0,NONMATCH,t2,A,2back,1,3,3,802
5,1,Block4,4,Cued,0,0,NONMATCH,0,Z,control,1,3,3,546
5,1,Block4,5,Cued,0,0,MATCH,d2,O,3back,1,4,4,1486
5,1,Block4,6,Cued,4,0,NONMATCH,v1,M,control,1,3,3,1407
5,1,Block4,7,Cued,0,0,NONMATCH,0,Y,control,1,3,3,536
5,1,Block4,8,Cued,4,0,NONMATCH,v1,P,control,1,3,3,717
5,1,Block4,9,Cued,0,0,NONMATCH,0,S,control,1,3,3,794
5,1,Block4,10,Cued,0,0,NONMATCH,v2,M,4back,0,3,4,860
5,1,Block4,11,Cued,2,0,NONMATCH,t1,B,control,1,3,3,2060
5,1,Block4,12,Cued,0,0,NONMATCH,v2,P,4back,1,3,3,714
5,1,Block4,13,Cued,0,0,NONMATCH,t2,B,2back,1,3,3,997
5,1,Block4,14,Cued,4,0,NONMATCH,v1,E,control,1,3,3,963
5,1,Block4,15,Cued,0,0,NONMATCH,0,K,control,1,3,3,845
5,1,Block4,16,Cued,0,0,NONMATCH,d1,T,control,1,3,3,847
5,1,Block4,17,Cued,0,0,NONMATCH,0,H,control,1,3,3,819
5,1,Block4,18,Cued,0,0,NONMATCH,v2,E,4back,0,3,4,1222
5,1,Block4,19,Cued,0,0,MATCH,d2,T,3back,1,4,4,1335
5,1,Block4,20,Cued,2,0,NONMATCH,t1,U,control,1,3,3,1060
5,1,Block4,21,Cued,0,0,NONMATCH,0,W,control,1,3,3,496
5,1,Block4,22,Cued,0,0,NONMATCH,t2,U,2back,1,3,3,957
5,1,Block4,23,Cued,2,0,NONMATCH,t1,L,control,1,3,3,605
5,1,Block4,24,Cued,0,0,NONMATCH,d1,G,control,1,3,3,1236
5,1,Block4,25,Cued,0,0,NONMATCH,t2,L,2back,1,3,3,1543
5,1,Block4,26,Cued,4,0,NONMATCH,v1,C,control,1,3,3,1225
5,1,Block4,27,Cued,0,0,MATCH,d2,G,3back,0,4,3,1751
5,1,Block4,28,Cued,0,0,NONMATCH,0,R,control,1,3,3,778
5,1,Block4,29,Cued,0,0,NONMATCH,d1,D,control,1,3,3,1143
5,1,Block4,30,Cued,0,0,NONMATCH,v2,C,4back,1,3,3,1645
5,1,Block4,31,Cued,0,0,NONMATCH,0,J,control,1,3,3,1923
5,1,Block4,32,Cued,0,0,MATCH,d2,D,3back,0,4,3,1769
6,1,Block1,1,Uncued,0,0,NONMATCH,d1,U,control,1,3,3,631
6,1,Block1,2,Uncued,0,0,NONMATCH,0,Y,control,1,3,3,412
6,1,Block1,3,Uncued,2,0,NONMATCH,t1,S,control,1,3,3,389
6,1,Block1,4,Uncued,0,0,MATCH,d2,U,3back,1,4,4,335
6,1,Block1,5,Uncued,0,0,NONMATCH,t2,S,2back,0,3,4,881
6,1,Block1,6,Uncued,4,0,NONMATCH,v1,T,control,1,3,3,582
6,1,Block1,7,Uncued,0,0,NONMATCH,0,D,control,1,3,3,711
6,1,Block1,8,Uncued,0,0,NONMATCH,0,Z,control,1,3,3,488
6,1,Block1,9,Uncued,0,0,NONMATCH,d1,L,control,1,3,3,638
6,1,Block1,10,Uncued,0,0,NONMATCH,v2,T,4back,0,3,4,770
6,1,Block1,11,Uncued,0,0,NONMATCH,0,K,control,1,3,3,496
6,1,Block1,12,Uncued,0,0,MATCH,d2,L,3back,1,4,4,784
6,1,Block1,13,Uncued,4,0,NONMATCH,v1,W,control,1,3,3,551
6,1,Block1,14,Uncued,0,0,NONMATCH,0,C,control,1,3,3,687
6,1,Block1,15,Uncued,0,0,NONMATCH,0,A,control,1,3,3,592
6,1,Block1,16,Uncued,0,0,NONMATCH,d1,M,control,1,3,3,676
6,1,Block1,17,Uncued,0,0,NONMATCH,v2,W,4back,0,3,4,661
6,1,Block1,18,Uncued,2,0,NONMATCH,t1,G,control,1,3,3,631
6,1,Block1,19,Uncued,0,0,MATCH,d2,M,3back,0,4,3,523
6,1,Block1,20,Uncued,0,0,NONMATCH,t2,G,2back,1,3,3,657
6,1,Block1,21,Uncued,0,0,NONMATCH,0,P,control,1,3,3,701
6,1,Block1,22,Uncued,2,0,NONMATCH,t1,O,control,1,3,3,1012
6,1,Block1,23,Uncued,2,0,NONMATCH,t1,R,control,0,3,4,876
6,1,Block1,24,Uncued,0,0,NONMATCH,t2,O,2back,1,3,3,727
6,1,Block1,25,Uncued,0,0,NONMATCH,t2,R,2back,1,3,3,910
6,1,Block1,26,Uncued,0,0,NONMATCH,d1,J,control,1,3,3,708
6,1,Block1,27,Uncued,4,0,NONMATCH,v1,E,control,1,3,3,647
6,1,Block1,28,Uncued,4,0,NONMATCH,v1,H,control,1,3,3,616
6,1,Block1,29,Uncued,0,0,MATCH,d2,J,3back,1,4,4,688
6,1,Block1,30,Uncued,0,0,NONMATCH,0,B,control,1,3,3,609
6,1,Block1,31,Uncued,0,0,NONMATCH,v2,E,4back,1,3,3,646
6,1,Block1,32,Uncued,0,0,NONMATCH,v2,H,4back,0,3,4,838
6,1,Block2,1,Uncued,0,0,NONMATCH,0,L,control,1,3,3,576
6,1,Block2,2,Uncued,0,0,NONMATCH,d1,G,control,1,3,3,414
6,1,Block2,3,Uncued,4,0,NONMATCH,v1,M,control,1,3,3,516
6,1,Block2,4,Uncued,0,0,NONMATCH,0,T,control,1,3,3,464
6,1,Block2,5,Uncued,0,0,MATCH,d2,G,3back,1,4,4,803
6,1,Block2,6,Uncued,2,0,NONMATCH,t1,A,control,1,3,3,547
6,1,Block2,7,Uncued,0,0,NONMATCH,v2,M,4back,0,3,4,562
6,1,Block2,8,Uncued,0,0,NONMATCH,t2,A,2back,1,3,3,695
6,1,Block2,9,Uncued,0,0,NONMATCH,d1,P,control,1,3,3,736
6,1,Block2,10,Uncued,0,0,NONMATCH,0,J,control,1,3,3,904
6,1,Block2,11,Uncued,0,0,NONMATCH,d1,W,control,1,3,3,577
6,1,Block2,12,Uncued,0,0,MATCH,d2,P,3back,1,4,4,548
6,1,Block2,13,Uncued,0,0,NONMATCH,0,S,control,1,3,3,534
6,1,Block2,14,Uncued,0,0,MATCH,d2,W,3back,1,4,4,965
6,1,Block2,15,Uncued,2,0,NONMATCH,t1,K,control,1,3,3,531
6,1,Block2,16,Uncued,0,0,NONMATCH,d1,Z,control,1,3,3,718
6,1,Block2,17,Uncued,0,0,NONMATCH,t2,K,2back,1,3,3,876
6,1,Block2,18,Uncued,0,0,NONMATCH,0,B,control,1,3,3,633
6,1,Block2,19,Uncued,0,0,MATCH,d2,Z,3back,1,4,4,837
6,1,Block2,20,Uncued,2,0,NONMATCH,t1,R,control,1,3,3,752
6,1,Block2,21,Uncued,4,0,NONMATCH,v1,E,control,1,3,3,554
6,1,Block2,22,Uncued,0,0,NONMATCH,t2,R,2back,0,3,4,836
6,1,Block2,23,Uncued,0,0,NONMATCH,0,C,control,1,3,3,501
6,1,Block2,24,Uncued,4,0,NONMATCH,v1,D,control,1,3,3,471
6,1,Block2,25,Uncued,0,0,NONMATCH,v2,E,4back,1,3,3,449
6,1,Block2,26,Uncued,4,0,NONMATCH,v1,U,control,1,3,3,576
6,1,Block2,27,Uncued,0,0,NONMATCH,0,O,control,0,3,4,951
6,1,Block2,28,Uncued,0,0,NONMATCH,v2,D,4back,1,3,3,425
6,1,Block2,29,Uncued,2,0,NONMATCH,t1,Y,control,1,3,3,527
6,1,Block2,30,Uncued,0,0,NONMATCH,v2,U,4back,0,3,4,510
6,1,Block2,31,Uncued,0,0,NONMATCH,t2,Y,2back,1,3,3,413
6,1,Block2,32,Uncued,0,0,NONMATCH,0,H,control,1,3,3,476
6,1,Block3,1,Cued,0,0,NONMATCH,d1,E,control,1,3,3,1090
6,1,Block3,2,Cued,0,0,NONMATCH,0,R,control,1,3,3,413
6,1,Block3,3,Cued,2,0,NONMATCH,t1,Y,control,1,3,3,641
6,1,Block3,4,Cued,0,0,MATCH,d2,E,3back,0,4,3,434
6,1,Block3,5,Cued,0,0,NONMATCH,t2,Y,2back,1,3,3,483
6,1,Block3,6,Cued,0,0,NONMATCH,d1,C,control,0,3,4,359
6,1,Block3,7,Cued,0,0,NONMATCH,0,A,control,1,3,3,807
6,1,Block3,8,Cued,2,0,NONMATCH,t1,L,control,1,3,3,650
6,1,Block3,9,Cued,0,0,MATCH,d2,C,3back,0,4,3,811
6,1,Block3,10,Cued,0,0,NONMATCH,t2,L,2back,1,3,3,427
6,1,Block3,11,Cued,2,0,NONMATCH,t1,J,control,0,3,4,1377
6,1,Block3,12,Cued,4,0,NONMATCH,v1,Z,control,1,3,3,602
6,1,Block3,13,Cued,0,0,NONMATCH,t2,J,2back,0,3,4,896
6,1,Block3,14,Cued,0,0,NONMATCH,0,M,control,1,3,3,408
6,1,Block3,15,Cued,0,0,NONMATCH,d1,U,control,1,3,3,614
6,1,Block3,16,Cued,0,0,NONMATCH,v2,Z,4back,1,3,3,697
6,1,Block3,17,Cued,4,0,NONMATCH,v1,H,control,0,3,4,617
6,1,Block3,18,Cued,0,0,MATCH,d2,U,3back,0,4,3,345
6,1,Block3,19,Cued,0,0,NONMATCH,0,W,control,1,3,3,778
6,1,Block3,20,Cued,2,0,NONMATCH,t1,G,control,1,3,3,902
6,1,Block3,21,Cued,0,0,NONMATCH,v2,H,4back,1,3,3,1267
6,1,Block3,22,Cued,0,0,NONMATCH,t2,G,2back,1,3,3,678
6,1,Block3,23,Cued,4,0,NONMATCH,v1,O,control,1,3,3,571
6,1,Block3,24,Cued,0,0,NONMATCH,0,D,control,1,3,3,660
6,1,Block3,25,Cued,0,0,NONMATCH,0,K,control,0,3,4,772
6,1,Block3,26,Cued,4,0,NONMATCH,v1,B,control,1,3,3,856
6,1,Block3,27,Cued,0,0,NONMATCH,v2,O,4back,1,3,3,622
6,1,Block3,28,Cued,0,0,NONMATCH,0,P,control,1,3,3,982
6,1,Block3,29,Cued,0,0,NONMATCH,d1,T,control,1,3,3,803
6,1,Block3,30,Cued,0,0,NONMATCH,v2,B,4back,1,3,3,1053
6,1,Block3,31,Cued,0,0,NONMATCH,0,S,control,0,3,4,490
6,1,Block3,32,Cued,0,0,MATCH,d2,T,3back,0,4,3,496
6,1,Block4,1,Cued,0,0,NONMATCH,0,H,control,1,3,3,801
6,1,Block4,2,Cued,2,0,NONMATCH,t1,A,control,1,3,3,861
6,1,Block4,3,Cued,0,0,NONMATCH,d1,C,control,1,3,3,888
6,1,Block4,4,Cued,0,0,NONMATCH,t2,A,2back,1,3,3,735
6,1,Block4,5,Cued,0,0,NONMATCH,0,U,control,1,3,3,718
6,1,Block4,6,Cued,0,0,MATCH,d2,C,3back,1,4,4,810
6,1,Block4,7,Cued,2,0,NONMATCH,t1,M,control,1,3,3,809
6,1,Block4,8,Cued,0,0,NONMATCH,d1,D,control,1,3,3,953
6,1,Block4,9,Cued,0,0,NONMATCH,t2,M,2back,1,3,3,910
6,1,Block4,10,Cued,0,0,NONMATCH,0,Y,control,1,3,3,968
6,1,Block4,11,Cued,0,0,MATCH,d2,D,3back,1,4,4,591
6,1,Block4,12,Cued,2,0,NONMATCH,t1,P,control,1,3,3,694
6,1,Block4,13,Cued,0,0,NONMATCH,d1,O,control,1,3,3,778
6,1,Block4,14,Cued,0,0,NONMATCH,t2,P,2back,1,3,3,494
6,1,Block4,15,Cued,0,0,NONMATCH,0,Z,control,1,3,3,611
6,1,Block4,16,Cued,0,0,MATCH,d2,O,3back,1,4,4,418
6,1,Block4,17,Cued,4,0,NONMATCH,v1,B,control,1,3,3,613
6,1,Block4,18,Cued,0,0,NONMATCH,0,E,control,1,3,3,542
6,1,Block4,19,Cued,4,0,NONMATCH,v1,J,control,1,3,3,568
6,1,Block4,20,Cued,0,0,NONMATCH,0,G,control,1,3,3,734
6,1,Block4,21,Cued,0,0,NONMATCH,v2,B,4back,1,3,3,413
6,1,Block4,22,Cued,4,0,NONMATCH,v1,S,control,1,3,3,459
6,1,Block4,23,Cued,0,0,NONMATCH,v2,J,4back,0,3,4,865
6,1,Block4,24,Cued,0,0,NONMATCH,0,R,control,1,3,3,639
6,1,Block4,25,Cued,4,0,NONMATCH,v1,T,control,1,3,3,765
6,1,Block4,26,Cued,0,0,NONMATCH,v2,S,4back,0,3,4,778
6,1,Block4,27,Cued,0,0,NONMATCH,0,W,control,1,3,3,523
6,1,Block4,28,Cued,0,0,NONMATCH,d1,K,control,1,3,3,642
6,1,Block4,29,Cued,0,0,NONMATCH,v2,T,4back,0,3,4,454
6,1,Block4,30,Cued,2,0,NONMATCH,t1,L,control,1,3,3,712
6,1,Block4,31,Cued,0,0,MATCH,d2,K,3back,0,4,3,433
6,1,Block4,32,Cued,0,0,NONMATCH,t2,L,2back,1,3,3,411
7,1,Block1,1,Uncued,4,0,NONMATCH,v1,G,control,1,3,3,315
7,1,Block1,2,Uncued,0,0,NONMATCH,0,D,control,1,3,3,311
7,1,Block1,3,Uncued,0,0,NONMATCH,0,T,control,1,3,3,368
7,1,Block1,4,Uncued,2,0,NONMATCH,t1,E,control,1,3,3,383
7,1,Block1,5,Uncued,0,0,NONMATCH,v2,G,4back,0,3,4,611
7,1,Block1,6,Uncued,0,0,NONMATCH,t2,E,2back,1,3,3,501
7,1,Block1,7,Uncued,0,0,NONMATCH,d1,J,control,1,3,3,732
7,1,Block1,8,Uncued,0,0,NONMATCH,0,B,control,1,3,3,540
7,1,Block1,9,Uncued,4,0,NONMATCH,v1,K,control,1,3,3,491
7,1,Block1,10,Uncued,0,0,MATCH,d2,J,3back,0,4,3,1177
7,1,Block1,11,Uncued,0,0,NONMATCH,d1,A,control,1,3,3,789
7,1,Block1,12,Uncued,0,0,NONMATCH,0,Z,control,1,3,3,1010
7,1,Block1,13,Uncued,0,0,NONMATCH,v2,K,4back,0,3,4,781
7,1,Block1,14,Uncued,0,0,MATCH,d2,A,3back,0,4,3,603
7,1,Block1,15,Uncued,0,0,NONMATCH,0,C,control,1,3,3,883
7,1,Block1,16,Uncued,0,0,NONMATCH,d1,W,control,1,3,3,818
7,1,Block1,17,Uncued,4,0,NONMATCH,v1,S,control,1,3,3,2346
7,1,Block1,18,Uncued,0,0,NONMATCH,0,U,control,1,3,3,1329
7,1,Block1,19,Uncued,0,0,MATCH,d2,W,3back,0,4,3,2567
7,1,Block1,20,Uncued,2,0,NONMATCH,t1,M,control,1,3,3,1361
7,1,Block1,21,Uncued,0,0,NONMATCH,v2,S,4back,0,3,4,787
7,1,Block1,22,Uncued,0,0,NONMATCH,t2,M,2back,1,3,3,1317
7,1,Block1,23,Uncued,0,0,NONMATCH,d1,P,control,1,3,3,879
7,1,Block1,24,Uncued,4,0,NONMATCH,v1,R,control,1,3,3,959
7,1,Block1,25,Uncued,0,0,NONMATCH,0,O,control,1,3,3,621
7,1,Block1,26,Uncued,0,0,MATCH,d2,P,3back,0,4,3,1816
7,1,Block1,27,Uncued,2,0,NONMATCH,t1,G,control,1,3,3,1967
7,1,Block1,28,Uncued,0,0,NONMATCH,v2,R,4back,1,3,3,1369
7,1,Block1,29,Uncued,0,0,NONMATCH,t2,H,2back,1,3,3,2226
7,1,Block1,30,Uncued,2,0,NONMATCH,t1,Y,control,1,3,3,768
7,1,Block1,31,Uncued,0,0,NONMATCH,0,L,control,1,3,3,1370
7,1,Block1,32,Uncued,0,0,NONMATCH,t2,Y,2back,0,3,4,981
7,1,Block2,1,Uncued,0,0,NONMATCH,d1,B,control,1,3,3,602
7,1,Block2,2,Uncued,0,0,NONMATCH,0,D,control,1,3,3,380
7,1,Block2,3,Uncued,2,0,NONMATCH,t1,P,control,1,3,3,409
7,1,Block2,4,Uncued,0,0,MATCH,d2,B,3back,1,4,4,563
7,1,Block2,5,Uncued,0,0,NONMATCH,t2,P,2back,1,3,3,2288
7,1,Block2,6,Uncued,0,0,NONMATCH,d1,R,control,1,3,3,772
7,1,Block2,7,Uncued,0,0,NONMATCH,0,S,control,1,3,3,693
7,1,Block2,8,Uncued,4,0,NONMATCH,v1,C,control,1,3,3,565
7,1,Block2,9,Uncued,0,0,MATCH,d2,R,3back,0,4,3,1817
7,1,Block2,10,Uncued,0,0,NONMATCH,0,W,control,1,3,3,1593
7,1,Block2,11,Uncued,2,0,NONMATCH,t1,U,control,1,3,3,772
7,1,Block2,12,Uncued,0,0,NONMATCH,v2,C,4back,0,3,4,827
7,1,Block2,13,Uncued,0,0,NONMATCH,t2,U,2back,1,3,3,1407
7,1,Block2,14,Uncued,4,0,NONMATCH,v1,L,control,1,3,3,841
7,1,Block2,15,Uncued,2,0,NONMATCH,t1,A,control,1,3,3,1360
7,1,Block2,16,Uncued,4,0,NONMATCH,v1,O,control,1,3,3,547
7,1,Block2,17,Uncued,0,0,NONMATCH,t2,A,2back,0,3,4,811
7,1,Block2,18,Uncued,0,0,NONMATCH,v2,L,4back,0,3,4,1688
7,1,Block2,19,Uncued,2,0,NONMATCH,t1,G,control,1,3,3,543
7,1,Block2,20,Uncued,0,0,NONMATCH,v2,O,4back,1,3,3,400
7,1,Block2,21,Uncued,0,0,NONMATCH,t2,G,2back,1,3,3,679
7,1,Block2,22,Uncued,0,0,NONMATCH,0,J,control,1,3,3,994
7,1,Block2,23,Uncued,0,0,NONMATCH,d1,K,control,1,3,3,2199
7,1,Block2,24,Uncued,0,0,NONMATCH,0,E,control,1,3,3,1115
7,1,Block2,25,Uncued,0,0,NONMATCH,d1,M,control,1,3,3,798
7,1,Block2,26,Uncued,0,0,MATCH,d2,K,3back,1,4,4,692
7,1,Block2,27,Uncued,4,0,NONMATCH,v1,H,control,1,3,3,1769
7,1,Block2,28,Uncued,0,0,MATCH,d2,M,3back,0,4,3,853
7,1,Block2,29,Uncued,0,0,NONMATCH,0,Z,control,1,3,3,485
7,1,Block2,30,Uncued,0,0,NONMATCH,0,Y,control,1,3,3,520
7,1,Block2,31,Uncued,0,0,NONMATCH,v2,H,4back,1,3,3,1505
7,1,Block2,32,Uncued,0,0,NONMATCH,0,T,control,1,3,3,1159
7,1,Block3,1,Cued,2,0,NONMATCH,t1,D,control,1,3,3,1057
7,1,Block3,2,Cued,0,0,NONMATCH,d1,P,control,1,3,3,914
7,1,Block3,3,Cued,0,0,NONMATCH,t2,D,2back,1,3,3,960
7,1,Block3,4,Cued,0,0,NONMATCH,0,T,control,1,3,3,1037
7,1,Block3,5,Cued,0,0,MATCH,d2,P,3back,0,4,3,1368
7,1,Block3,6,Cued,2,0,NONMATCH,t1,R,control,1,3,3,1236
7,1,Block3,7,Cued,4,0,NONMATCH,v1,B,control,1,3,3,1160
7,1,Block3,8,Cued,0,0,NONMATCH,t2,R,2back,1,3,3,993
7,1,Block3,9,Cued,0,0,NONMATCH,0,Y,control,1,3,3,369
7,1,Block3,10,Cued,0,0,NONMATCH,d1,E,control,1,3,3,809
7,1,Block3,11,Cued,0,0,NONMATCH,v2,B,4back,1,3,3,1074
7,1,Block3,12,Cued,4,0,NONMATCH,v1,Z,control,1,3,3,959
7,1,Block3,13,Cued,0,0,MATCH,d2,E,3back,0,4,3,491
7,1,Block3,14,Cued,0,0,NONMATCH,0,W,control,1,3,3,677
7,1,Block3,15,Cued,4,0,NONMATCH,v1,A,control,1,3,3,825
7,1,Block3,16,Cued,0,0,NONMATCH,v2,Z,4back,1,3,3,926
7,1,Block3,17,Cued,0,0,NONMATCH,0,U,control,1,3,3,1088
7,1,Block3,18,Cued,2,0,NONMATCH,t1,C,control,1,3,3,866
7,1,Block3,19,Cued,0,0,NONMATCH,v2,A,4back,1,3,3,382
7,1,Block3,20,Cued,0,0,NONMATCH,t2,C,2back,1,3,3,1499
7,1,Block3,21,Cued,0,0,NONMATCH,d1,O,control,1,3,3,1200
7,1,Block3,22,Cued,0,0,NONMATCH,0,M,control,1,3,3,832
7,1,Block3,23,Cued,2,0,NONMATCH,t1,L,control,1,3,3,898
7,1,Block3,24,Cued,0,0,MATCH,d2,O,3back,1,4,4,1210
7,1,Block3,25,Cued,0,0,NONMATCH,t2,L,2back,1,3,3,698
7,1,Block3,26,Cued,0,0,NONMATCH,d1,J,control,1,3,3,1779
7,1,Block3,27,Cued,0,0,NONMATCH,0,H,control,1,3,3,1278
7,1,Block3,28,Cued,4,0,NONMATCH,v1,K,control,1,3,3,1573
7,1,Block3,29,Cued,0,0,MATCH,d2,J,3back,1,4,4,1098
7,1,Block3,30,Cued,0,0,NONMATCH,0,S,control,1,3,3,625
7,1,Block3,31,Cued,0,0,NONMATCH,0,G,control,0,3,4,1553
7,1,Block3,32,Cued,0,0,NONMATCH,v2,K,4back,0,3,4,1372
7,1,Block4,1,Cued,4,0,NONMATCH,v1,H,control,1,3,3,1478
7,1,Block4,2,Cued,0,0,NONMATCH,0,L,control,1,3,3,985
7,1,Block4,3,Cued,0,0,NONMATCH,0,J,control,1,3,3,481
7,1,Block4,4,Cued,2,0,NONMATCH,t1,O,control,1,3,3,597
7,1,Block4,5,Cued,0,0,NONMATCH,v2,H,4back,1,3,3,2432
7,1,Block4,6,Cued,0,0,NONMATCH,t2,O,2back,1,3,3,2107
7,1,Block4,7,Cued,0,0,NONMATCH,0,P,control,1,3,3,1197
7,1,Block4,8,Cued,4,0,NONMATCH,v1,M,control,1,3,3,2021
7,1,Block4,9,Cued,2,0,NONMATCH,t1,G,control,1,3,3,1043
7,1,Block4,10,Cued,0,0,NONMATCH,0,R,control,1,3,3,947
7,1,Block4,11,Cued,0,0,NONMATCH,t2,G,2back,1,3,3,1259
7,1,Block4,12,Cued,0,0,NONMATCH,v2,M,4back,0,3,4,626
7,1,Block4,13,Cued,2,0,NONMATCH,t1,A,control,1,3,3,569
7,1,Block4,14,Cued,0,0,NONMATCH,d1,E,control,0,3,4,1042
7,1,Block4,15,Cued,0,0,NONMATCH,t2,A,2back,0,3,4,645
7,1,Block4,16,Cued,4,0,NONMATCH,v1,Z,control,1,3,3,1324
7,1,Block4,17,Cued,0,0,MATCH,d2,E,3back,0,4,3,1424
7,1,Block4,18,Cued,4,0,NONMATCH,v1,D,control,1,3,3,653
7,1,Block4,19,Cued,0,0,NONMATCH,0,C,control,1,3,3,865
7,1,Block4,20,Cued,0,0,NONMATCH,v2,Z,4back,0,3,4,1138
7,1,Block4,21,Cued,0,0,NONMATCH,d1,T,control,1,3,3,465
7,1,Block4,22,Cued,0,0,NONMATCH,v2,D,4back,1,3,3,617
7,1,Block4,23,Cued,0,0,NONMATCH,d1,B,control,1,3,3,825
7,1,Block4,24,Cued,0,0,MATCH,d2,T,3back,0,4,3,596
7,1,Block4,25,Cued,2,0,NONMATCH,t1,K,control,1,3,3,597
7,1,Block4,26,Cued,0,0,MATCH,d2,B,3back,1,4,4,559
7,1,Block4,27,Cued,0,0,NONMATCH,t2,K,2back,1,3,3,247
7,1,Block4,28,Cued,0,0,NONMATCH,0,Y,control,1,3,3,732
7,1,Block4,29,Cued,0,0,NONMATCH,d1,U,control,1,3,3,498
7,1,Block4,30,Cued,0,0,NONMATCH,0,W,control,1,3,3,774
7,1,Block4,31,Cued,0,0,NONMATCH,0,S,control,1,3,3,850
7,1,Block4,32,Cued,0,0,MATCH,d2,U,3back,1,4,4,558
8,1,Block1,1,Uncued,0,0,NONMATCH,d1,K,control,1,3,3,901
8,1,Block1,2,Uncued,0,0,NONMATCH,0,C,control,1,3,3,469
8,1,Block1,3,Uncued,4,0,NONMATCH,v1,H,control,1,3,3,427
8,1,Block1,4,Uncued,0,0,MATCH,d2,K,3back,1,4,4,577
8,1,Block1,5,Uncued,0,0,NONMATCH,0,D,control,1,3,3,561
8,1,Block1,6,Uncued,2,0,NONMATCH,t1,L,control,1,3,3,800
8,1,Block1,7,Uncued,0,0,NONMATCH,v2,H,4back,0,3,4,889
8,1,Block1,8,Uncued,0,0,NONMATCH,t2,L,2back,0,3,,0
8,1,Block1,9,Uncued,2,0,NONMATCH,t1,T,control,1,3,3,882
8,1,Block1,10,Uncued,0,0,NONMATCH,d1,M,control,1,3,3,1062
8,1,Block1,11,Uncued,0,0,NONMATCH,t2,T,2back,1,3,3,1421
8,1,Block1,12,Uncued,4,0,NONMATCH,v1,P,control,1,3,3,711
8,1,Block1,13,Uncued,0,0,MATCH,d2,M,3back,1,4,4,1031
8,1,Block1,14,Uncued,0,0,NONMATCH,0,W,control,1,3,3,774
8,1,Block1,15,Uncued,4,0,NONMATCH,v1,S,control,1,3,3,587
8,1,Block1,16,Uncued,0,0,NONMATCH,v2,P,4back,0,3,4,699
8,1,Block1,17,Uncued,0,0,NONMATCH,0,R,control,1,3,3,731
8,1,Block1,18,Uncued,0,0,NONMATCH,d1,E,control,1,3,3,1682
8,1,Block1,19,Uncued,0,0,NONMATCH,v2,S,4back,1,3,3,1100
8,1,Block1,20,Uncued,2,0,NONMATCH,t1,Z,control,1,3,3,988
8,1,Block1,21,Uncued,0,0,MATCH,d2,E,3back,1,4,4,762
8,1,Block1,22,Uncued,0,0,NONMATCH,t2,Z,2back,0,3,,0
8,1,Block1,23,Uncued,4,0,NONMATCH,v1,B,control,1,3,3,1087
8,1,Block1,24,Uncued,0,0,NONMATCH,0,G,control,1,3,3,906
8,1,Block1,25,Uncued,0,0,NONMATCH,0,U,control,1,3,3,533
8,1,Block1,26,Uncued,2,0,NONMATCH,t1,O,control,1,3,3,570
8,1,Block1,27,Uncued,0,0,NONMATCH,v2,B,4back,0,3,4,663
8,1,Block1,28,Uncued,0,0,NONMATCH,t2,O,2back,1,3,3,1554
8,1,Block1,29,Uncued,0,0,NONMATCH,d1,A,control,1,3,3,1063
8,1,Block1,30,Uncued,0,0,NONMATCH,0,J,control,1,3,3,565
8,1,Block1,31,Uncued,0,0,NONMATCH,0,Y,control,1,3,3,732
8,1,Block1,32,Uncued,0,0,MATCH,d2,A,3back,1,4,4,992
8,1,Block2,1,Uncued,0,0,NONMATCH,0,K,control,1,3,3,937
8,1,Block2,2,Uncued,4,0,NONMATCH,v1,D,control,1,3,3,496
8,1,Block2,3,Uncued,2,0,NONMATCH,t1,H,control,1,3,3,563
8,1,Block2,4,Uncued,0,0,NONMATCH,0,M,control,1,3,3,753
8,1,Block2,5,Uncued,0,0,NONMATCH,t2,H,2back,0,3,4,580
8,1,Block2,6,Uncued,0,0,NONMATCH,v2,D,4back,1,3,3,853
8,1,Block2,7,Uncued,4,0,NONMATCH,v1,U,control,1,3,3,1172
8,1,Block2,8,Uncued,0,0,NONMATCH,0,G,control,1,3,3,1132
8,1,Block2,9,Uncued,0,0,NONMATCH,d1,C,control,1,3,3,760
8,1,Block2,10,Uncued,0,0,NONMATCH,0,E,control,1,3,3,901
8,1,Block2,11,Uncued,0,0,NONMATCH,v2,U,4back,0,3,4,689
8,1,Block2,12,Uncued,0,0,MATCH,d2,C,3back,1,4,4,1838
8,1,Block2,13,Uncued,4,0,NONMATCH,v1,Z,control,1,3,3,838
8,1,Block2,14,Uncued,0,0,NONMATCH,0,J,control,1,3,3,461
8,1,Block2,15,Uncued,4,0,NONMATCH,v1,B,control,1,3,3,945
8,1,Block2,16,Uncued,0,0,NONMATCH,0,A,control,0,3,4,1202
8,1,Block2,17,Uncued,0,0,NONMATCH,v2,Z,4back,1,3,3,1345
8,1,Block2,18,Uncued,0,0,NONMATCH,d1,T,control,1,3,3,780
8,1,Block2,19,Uncued,0,0,NONMATCH,v2,B,4back,1,3,3,716
8,1,Block2,20,Uncued,2,0,NONMATCH,t1,P,control,1,3,3,685
8,1,Block2,21,Uncued,0,0,MATCH,d2,T,3back,1,4,4,1140
8,1,Block2,22,Uncued,0,0,NONMATCH,t2,P,2back,0,3,4,1056
8,1,Block2,23,Uncued,2,0,NONMATCH,t1,S,control,1,3,3,1201
8,1,Block2,24,Uncued,0,0,NONMATCH,d1,W,control,1,3,3,1371
8,1,Block2,25,Uncued,0,0,NONMATCH,t2,S,2back,1,3,3,1258
8,1,Block2,26,Uncued,2,0,NONMATCH,t1,R,control,1,3,3,1250
8,1,Block2,27,Uncued,0,0,MATCH,d2,W,3back,1,4,4,1700
8,1,Block2,28,Uncued,0,0,NONMATCH,t2,R,2back,0,3,4,868
8,1,Block2,29,Uncued,0,0,NONMATCH,d1,O,control,1,3,3,769
8,1,Block2,30,Uncued,0,0,NONMATCH,0,L,control,1,3,3,1180
8,1,Block2,31,Uncued,0,0,NONMATCH,0,Y,control,1,3,3,682
8,1,Block2,32,Uncued,0,0,MATCH,d2,O,3back,1,4,4,1120
8,1,Block3,1,Cued,2,0,NONMATCH,t1,L,control,1,3,3,1661
8,1,Block3,2,Cued,0,0,NONMATCH,d1,C,control,1,3,3,1638
8,1,Block3,3,Cued,0,0,NONMATCH,t2,L,2back,1,3,3,1365
8,1,Block3,4,Cued,0,0,NONMATCH,0,W,control,1,3,3,978
8,1,Block3,5,Cued,0,0,MATCH,d2,C,3back,1,4,4,747
8,1,Block3,6,Cued,2,0,NONMATCH,t1,G,control,1,3,3,1627
8,1,Block3,7,Cued,4,0,NONMATCH,v1,U,control,1,3,3,1084
8,1,Block3,8,Cued,0,0,NONMATCH,t2,G,2back,1,3,3,1381
8,1,Block3,9,Cued,0,0,NONMATCH,0,E,control,1,3,3,817
8,1,Block3,10,Cued,4,0,NONMATCH,v1,O,control,1,3,3,985
8,1,Block3,11,Cued,0,0,NONMATCH,v2,U,4back,1,3,3,921
8,1,Block3,12,Cued,0,0,NONMATCH,0,J,control,1,3,3,1453
8,1,Block3,13,Cued,0,0,NONMATCH,d1,R,control,1,3,3,1229
8,1,Block3,14,Cued,0,0,NONMATCH,v2,O,4back,0,3,4,1141
8,1,Block3,15,Cued,4,0,NONMATCH,v1,S,control,1,3,3,743
8,1,Block3,16,Cued,0,0,MATCH,d2,R,3back,1,4,4,1116
8,1,Block3,17,Cued,0,0,NONMATCH,0,Z,control,1,3,3,833
8,1,Block3,18,Cued,0,0,NONMATCH,d1,K,control,1,3,3,1055
8,1,Block3,19,Cued,0,0,NONMATCH,v2,S,4back,1,3,3,1254
8,1,Block3,20,Cued,2,0,NONMATCH,t1,A,control,1,3,3,1121
8,1,Block3,21,Cued,0,0,MATCH,d2,K,3back,1,4,4,1176
8,1,Block3,22,Cued,0,0,NONMATCH,t2,A,2back,1,3,3,1227
8,1,Block3,23,Cued,0,0,NONMATCH,0,Y,control,1,3,3,997
8,1,Block3,24,Cued,4,0,NONMATCH,v1,M,control,1,3,3,1381
8,1,Block3,25,Cued,2,0,NONMATCH,t1,B,control,0,3,,0
8,1,Block3,26,Cued,0,0,NONMATCH,0,D,control,1,3,3,1118
8,1,Block3,27,Cued,0,0,NONMATCH,t2,B,2back,0,3,4,967
8,1,Block3,28,Cued,0,0,NONMATCH,v2,M,4back,1,3,3,768
8,1,Block3,29,Cued,0,0,NONMATCH,d1,P,control,1,3,3,955
8,1,Block3,30,Cued,0,0,NONMATCH,0,T,control,1,3,3,866
8,1,Block3,31,Cued,0,0,NONMATCH,0,H,control,1,3,3,909
8,1,Block3,32,Cued,0,0,MATCH,d2,P,3back,1,4,4,895
8,1,Block4,1,Cued,0,0,NONMATCH,0,G,control,1,3,3,2093
8,1,Block4,2,Cued,0,0,NONMATCH,d1,E,control,1,3,3,571
8,1,Block4,3,Cued,4,0,NONMATCH,v1,T,control,1,3,3,573
8,1,Block4,4,Cued,0,0,NONMATCH,0,A,control,1,3,3,663
8,1,Block4,5,Cued,0,0,MATCH,d2,E,3back,1,4,4,458
8,1,Block4,6,Cued,2,0,NONMATCH,t1,K,control,1,3,3,1176
8,1,Block4,7,Cued,0,0,NONMATCH,v2,T,4back,0,3,4,927
8,1,Block4,8,Cued,0,0,NONMATCH,t2,K,2back,1,3,3,1727
8,1,Block4,9,Cued,0,0,NONMATCH,0,M,control,1,3,3,1125
8,1,Block4,10,Cued,2,0,NONMATCH,t1,R,control,1,3,3,1030
8,1,Block4,11,Cued,0,0,NONMATCH,d1,W,control,1,3,3,1118
8,1,Block4,12,Cued,0,0,NONMATCH,t2,R,2back,1,3,3,1115
8,1,Block4,13,Cued,4,0,NONMATCH,v1,L,control,1,3,3,911
8,1,Block4,14,Cued,0,0,MATCH,d2,W,3back,1,4,4,580
8,1,Block4,15,Cued,4,0,NONMATCH,v1,U,control,1,3,3,865
8,1,Block4,16,Cued,0,0,NONMATCH,0,J,control,1,3,3,918
8,1,Block4,17,Cued,0,0,NONMATCH,v2,L,4back,1,3,3,1188
8,1,Block4,18,Cued,0,0,NONMATCH,0,O,control,0,3,4,1089
8,1,Block4,19,Cued,0,0,NONMATCH,v2,U,4back,1,3,3,898
8,1,Block4,20,Cued,4,0,NONMATCH,v1,S,control,1,3,3,523
8,1,Block4,21,Cued,2,0,NONMATCH,t1,B,control,1,3,3,869
8,1,Block4,22,Cued,0,0,NONMATCH,d1,C,control,0,3,4,819
8,1,Block4,23,Cued,0,0,NONMATCH,t2,B,2back,1,3,3,648
8,1,Block4,24,Cued,0,0,NONMATCH,v2,S,4back,1,3,3,891
8,1,Block4,25,Cued,0,0,MATCH,d2,C,3back,0,4,3,1066
8,1,Block4,26,Cued,0,0,NONMATCH,0,Z,control,1,3,3,901
8,1,Block4,27,Cued,2,0,NONMATCH,t1,H,control,1,3,3,869
8,1,Block4,28,Cued,0,0,NONMATCH,d1,P,control,1,3,3,1045
8,1,Block4,29,Cued,0,0,NONMATCH,t2,H,2back,0,3,4,798
8,1,Block4,30,Cued,0,0,NONMATCH,0,D,control,1,3,3,718
8,1,Block4,31,Cued,0,0,MATCH,d2,P,3back,1,4,4,845
8,1,Block4,32,Cued,0,0,NONMATCH,0,Y,control,1,3,3,897
9,1,Block1,1,Uncued,4,0,NONMATCH,v1,A,control,1,3,3,868
9,1,Block1,2,Uncued,0,0,NONMATCH,0,D,control,1,3,3,561
9,1,Block1,3,Uncued,0,0,NONMATCH,0,M,control,1,3,3,468
9,1,Block1,4,Uncued,2,0,NONMATCH,t1,U,control,1,3,3,541
9,1,Block1,5,Uncued,0,0,NONMATCH,v2,A,4back,1,3,3,1027
9,1,Block1,6,Uncued,0,0,NONMATCH,t2,U,2back,0,3,4,1259
9,1,Block1,7,Uncued,0,0,NONMATCH,d1,O,control,1,3,3,804
9,1,Block1,8,Uncued,0,0,NONMATCH,0,T,control,1,3,3,834
9,1,Block1,9,Uncued,0,0,NONMATCH,d1,K,control,1,3,3,508
9,1,Block1,10,Uncued,0,0,MATCH,d2,O,3back,1,4,4,422
9,1,Block1,11,Uncued,2,0,NONMATCH,t1,W,control,1,3,3,593
9,1,Block1,12,Uncued,0,0,MATCH,d2,K,3back,0,4,3,492
9,1,Block1,13,Uncued,0,0,NONMATCH,t2,W,2back,0,3,4,2764
9,1,Block1,14,Uncued,0,0,NONMATCH,0,L,control,1,3,3,866
9,1,Block1,15,Uncued,2,0,NONMATCH,t1,S,control,1,3,3,509
9,1,Block1,16,Uncued,0,0,NONMATCH,d1,E,control,1,3,3,552
9,1,Block1,17,Uncued,0,0,NONMATCH,t2,S,2back,0,3,4,2058
9,1,Block1,18,Uncued,4,0,NONMATCH,v1,G,control,1,3,3,1152
9,1,Block1,19,Uncued,0,0,MATCH,d2,E,3back,0,4,3,615
9,1,Block1,20,Uncued,4,0,NONMATCH,v1,J,control,1,3,3,635
9,1,Block1,21,Uncued,0,0,NONMATCH,0,B,control,1,3,3,577
9,1,Block1,22,Uncued,0,0,NONMATCH,v2,G,4back,0,3,4,569
9,1,Block1,23,Uncued,2,0,NONMATCH,t1,Z,control,1,3,3,523
9,1,Block1,24,Uncued,0,0,NONMATCH,v2,J,4back,1,3,3,468
9,1,Block1,25,Uncued,0,0,NONMATCH,t2,Z,2back,0,3,4,720
9,1,Block1,26,Uncued,4,0,NONMATCH,v1,H,control,1,3,3,1046
9,1,Block1,27,Uncued,0,0,NONMATCH,0,P,control,1,3,3,535
9,1,Block1,28,Uncued,0,0,NONMATCH,0,R,control,1,3,3,418
9,1,Block1,29,Uncued,0,0,NONMATCH,d1,C,control,1,3,3,658
9,1,Block1,30,Uncued,0,0,NONMATCH,v2,H,4back,0,3,4,495
9,1,Block1,31,Uncued,0,0,NONMATCH,0,Y,control,1,3,3,504
9,1,Block1,32,Uncued,0,0,MATCH,d2,C,3back,1,4,4,1010
9,1,Block2,1,Uncued,2,0,NONMATCH,t1,S,control,1,3,3,723
9,1,Block2,2,Uncued,0,0,NONMATCH,0,H,control,1,3,3,919
9,1,Block2,3,Uncued,0,0,NONMATCH,t2,S,2back,1,3,3,823
9,1,Block2,4,Uncued,4,0,NONMATCH,v1,P,control,1,3,3,739
9,1,Block2,5,Uncued,0,0,NONMATCH,0,L,control,1,3,3,521
9,1,Block2,6,Uncued,0,0,NONMATCH,d1,E,control,1,3,3,628
9,1,Block2,7,Uncued,0,0,NONMATCH,0,K,control,1,3,3,509
9,1,Block2,8,Uncued,0,0,NONMATCH,v2,P,4back,0,3,4,798
9,1,Block2,9,Uncued,0,0,MATCH,d2,E,3back,0,4,3,1704
9,1,Block2,10,Uncued,2,0,NONMATCH,t1,B,control,1,3,3,693
9,1,Block2,11,Uncued,4,0,NONMATCH,v1,W,control,1,3,3,912
9,1,Block2,12,Uncued,0,0,NONMATCH,t2,B,2back,0,3,4,579
9,1,Block2,13,Uncued,0,0,NONMATCH,0,J,control,1,3,3,675
9,1,Block2,14,Uncued,2,0,NONMATCH,t1,D,control,1,3,3,555
9,1,Block2,15,Uncued,0,0,NONMATCH,v2,W,4back,0,3,4,1052
9,1,Block2,16,Uncued,0,0,NONMATCH,t2,D,2back,1,3,3,2583
9,1,Block2,17,Uncued,0,0,NONMATCH,d1,U,control,1,3,3,929
9,1,Block2,18,Uncued,0,0,NONMATCH,0,M,control,1,3,3,610
9,1,Block2,19,Uncued,0,0,NONMATCH,0,Y,control,1,3,3,823
9,1,Block2,20,Uncued,0,0,MATCH,d2,U,3back,1,4,4,863
9,1,Block2,21,Uncued,0,0,NONMATCH,d1,T,control,1,3,3,633
9,1,Block2,22,Uncued,0,0,NONMATCH,0,Z,control,1,3,3,622
9,1,Block2,23,Uncued,2,0,NONMATCH,t1,O,control,1,3,3,629
9,1,Block2,24,Uncued,0,0,MATCH,d2,T,3back,1,4,4,810
9,1,Block2,25,Uncued,0,0,NONMATCH,t2,O,2back,0,3,4,1300
9,1,Block2,26,Uncued,4,0,NONMATCH,v1,C,control,1,3,3,1094
9,1,Block2,27,Uncued,4,0,NONMATCH,v1,A,control,1,3,3,881
9,1,Block2,28,Uncued,0,0,NONMATCH,0,R,control,1,3,3,518
9,1,Block2,29,Uncued,0,0,NONMATCH,d1,G,control,1,3,3,951
9,1,Block2,30,Uncued,0,0,NONMATCH,v2,C,4back,1,3,3,930
9,1,Block2,31,Uncued,0,0,NONMATCH,v2,A,4back,0,3,4,792
9,1,Block2,32,Uncued,0,0,MATCH,d2,G,3back,1,4,4,1225
9,1,Block3,1,Cued,2,0,NONMATCH,t1,A,control,1,3,3,2387
9,1,Block3,2,Cued,4,0,NONMATCH,v1,U,control,1,3,3,651
9,1,Block3,3,Cued,0,0,NONMATCH,t2,A,2back,0,3,4,418
9,1,Block3,4,Cued,0,0,NONMATCH,0,E,control,1,3,3,1169
9,1,Block3,5,Cued,0,0,NONMATCH,d1,L,control,1,3,3,616
9,1,Block3,6,Cued,0,0,NONMATCH,v2,U,4back,1,3,3,544
9,1,Block3,7,Cued,4,0,NONMATCH,v1,C,control,1,3,3,1269
9,1,Block3,8,Cued,0,0,MATCH,d2,L,3back,0,4,3,606
9,1,Block3,9,Cued,0,0,NONMATCH,0,S,control,1,3,3,944
9,1,Block3,10,Cued,4,0,NONMATCH,v1,B,control,0,3,4,1349
9,1,Block3,11,Cued,0,0,NONMATCH,v2,C,4back,0,3,4,1820
9,1,Block3,12,Cued,0,0,NONMATCH,d1,P,control,1,3,3,2567
9,1,Block3,13,Cued,0,0,NONMATCH,0,K,control,1,3,3,1167
9,1,Block3,14,Cued,0,0,NONMATCH,v2,B,4back,1,3,3,578
9,1,Block3,15,Cued,0,0,MATCH,d2,P,3back,1,4,4,482
9,1,Block3,16,Cued,2,0,NONMATCH,t1,M,control,1,3,3,875
9,1,Block3,17,Cued,0,0,NONMATCH,0,Z,control,1,3,3,758
9,1,Block3,18,Cued,0,0,NONMATCH,t2,M,2back,0,3,4,2631
9,1,Block3,19,Cued,0,0,NONMATCH,d1,R,control,1,3,3,2031
9,1,Block3,20,Cued,0,0,NONMATCH,0,H,control,1,3,3,1258
9,1,Block3,21,Cued,2,0,NONMATCH,t1,O,control,1,3,3,758
9,1,Block3,22,Cued,0,0,MATCH,d2,R,3back,1,4,4,688
9,1,Block3,23,Cued,0,0,NONMATCH,t2,O,2back,0,3,4,1146
9,1,Block3,24,Cued,0,0,NONMATCH,0,W,control,1,3,3,763
9,1,Block3,25,Cued,2,0,NONMATCH,t1,G,control,1,3,3,686
9,1,Block3,26,Cued,0,0,NONMATCH,d1,D,control,1,3,3,675
9,1,Block3,27,Cued,0,0,NONMATCH,t2,G,2back,1,3,3,633
9,1,Block3,28,Cued,4,0,NONMATCH,v1,J,control,1,3,3,925
9,1,Block3,29,Cued,0,0,MATCH,d2,D,3back,0,4,3,954
9,1,Block3,30,Cued,0,0,NONMATCH,0,Y,control,1,3,3,688
9,1,Block3,31,Cued,0,0,NONMATCH,0,T,control,1,3,3,682
9,1,Block3,32,Cued,0,0,NONMATCH,v2,J,4back,0,3,4,734
9,1,Block4,1,Cued,0,0,NONMATCH,d1,H,control,1,3,3,1458
9,1,Block4,2,Cued,0,0,NONMATCH,0,Z,control,1,3,3,717
9,1,Block4,3,Cued,4,0,NONMATCH,v1,L,control,1,3,3,762
9,1,Block4,4,Cued,0,0,MATCH,d2,H,3back,1,4,4,542
9,1,Block4,5,Cued,0,0,NONMATCH,0,M,control,1,3,3,621
9,1,Block4,6,Cued,2,0,NONMATCH,t1,K,control,1,3,3,1840
9,1,Block4,7,Cued,0,0,NONMATCH,v2,L,4back,0,3,4,1115
9,1,Block4,8,Cued,0,0,NONMATCH,t2,K,2back,1,3,3,1105
9,1,Block4,9,Cued,0,0,NONMATCH,0,B,control,1,3,3,2182
9,1,Block4,10,Cued,2,0,NONMATCH,t1,W,control,1,3,3,676
9,1,Block4,11,Cued,4,0,NONMATCH,v1,R,control,1,3,3,875
9,1,Block4,12,Cued,0,0,NONMATCH,t2,W,2back,1,3,3,608
9,1,Block4,13,Cued,4,0,NONMATCH,v1,A,control,1,3,3,1092
9,1,Block4,14,Cued,0,0,NONMATCH,0,S,control,1,3,3,1441
9,1,Block4,15,Cued,0,0,NONMATCH,v2,R,4back,1,3,3,2177
9,1,Block4,16,Cued,0,0,NONMATCH,d1,O,control,1,3,3,1626
9,1,Block4,17,Cued,0,0,NONMATCH,v2,A,4back,1,3,3,1112
9,1,Block4,18,Cued,4,0,NONMATCH,v1,C,control,1,3,3,2567
9,1,Block4,19,Cued,0,0,MATCH,d2,O,3back,1,4,4,518
9,1,Block4,20,Cued,0,0,NONMATCH,0,P,control,1,3,3,955
9,1,Block4,21,Cued,2,0,NONMATCH,t1,E,control,1,3,3,785
9,1,Block4,22,Cued,0,0,NONMATCH,v2,C,4back,0,3,4,573
9,1,Block4,23,Cued,0,0,NONMATCH,t2,E,2back,0,3,4,1932
9,1,Block4,24,Cued,0,0,NONMATCH,d1,J,control,1,3,3,897
9,1,Block4,25,Cued,0,0,NONMATCH,0,G,control,1,3,3,2709
9,1,Block4,26,Cued,2,0,NONMATCH,t1,Y,control,1,3,3,785
9,1,Block4,27,Cued,0,0,MATCH,d2,J,3back,1,4,4,819
9,1,Block4,28,Cued,0,0,NONMATCH,t2,Y,2back,0,3,4,1223
9,1,Block4,29,Cued,0,0,NONMATCH,d1,U,control,1,3,3,753
9,1,Block4,30,Cued,0,0,NONMATCH,0,T,control,1,3,3,1194
9,1,Block4,31,Cued,0,0,NONMATCH,0,D,control,1,3,3,2261
9,1,Block4,32,Cued,0,0,MATCH,d2,U,3back,0,4,3,1302
10,1,Block1,1,Uncued,4,0,NONMATCH,v1,M,control,1,3,3,395
10,1,Block1,2,Uncued,2,0,NONMATCH,t1,J,control,1,3,3,243
10,1,Block1,3,Uncued,0,0,NONMATCH,0,Z,control,1,3,3,253
10,1,Block1,4,Uncued,0,0,NONMATCH,t2,J,2back,1,3,3,368
10,1,Block1,5,Uncued,0,0,NONMATCH,v2,M,4back,1,3,3,445
10,1,Block1,6,Uncued,2,0,NONMATCH,t1,P,control,1,3,3,373
10,1,Block1,7,Uncued,2,0,NONMATCH,t1,C,control,1,3,3,279
10,1,Block1,8,Uncued,0,0,NONMATCH,t2,P,2back,0,3,4,523
10,1,Block1,9,Uncued,0,0,NONMATCH,t2,C,2back,1,3,3,316
10,1,Block1,10,Uncued,0,0,NONMATCH,d1,H,control,1,3,3,529
10,1,Block1,11,Uncued,0,0,NONMATCH,0,S,control,1,3,3,319
10,1,Block1,12,Uncued,0,0,NONMATCH,d1,Y,control,1,3,3,417
10,1,Block1,13,Uncued,0,0,MATCH,d2,H,3back,1,4,4,454
10,1,Block1,14,Uncued,0,0,NONMATCH,0,W,control,1,3,3,254
10,1,Block1,15,Uncued,0,0,MATCH,d2,Y,3back,0,4,3,294
10,1,Block1,16,Uncued,2,0,NONMATCH,t1,O,control,1,3,3,413
10,1,Block1,17,Uncued,4,0,NONMATCH,v1,A,control,1,3,3,425
10,1,Block1,18,Uncued,0,0,NONMATCH,t2,O,2back,0,3,4,427
10,1,Block1,19,Uncued,0,0,NONMATCH,0,K,control,1,3,3,259
10,1,Block1,20,Uncued,4,0,NONMATCH,v1,U,control,1,3,3,287
10,1,Block1,21,Uncued,0,0,NONMATCH,v2,A,4back,0,3,4,309
10,1,Block1,22,Uncued,0,0,NONMATCH,0,L,control,1,3,3,204
10,1,Block1,23,Uncued,0,0,NONMATCH,d1,B,control,1,3,3,282
10,1,Block1,24,Uncued,0,0,NONMATCH,v2,U,4back,1,3,3,369
10,1,Block1,25,Uncued,0,0,NONMATCH,0,D,control,1,3,3,468
10,1,Block1,26,Uncued,0,0,MATCH,d2,B,3back,1,4,4,389
10,1,Block1,27,Uncued,0,0,NONMATCH,d1,T,control,1,3,3,299
10,1,Block1,28,Uncued,4,0,NONMATCH,v1,E,control,1,3,3,328
10,1,Block1,29,Uncued,0,0,NONMATCH,0,R,control,1,3,3,782
10,1,Block1,30,Uncued,0,0,MATCH,d2,T,3back,1,4,4,852
10,1,Block1,31,Uncued,0,0,NONMATCH,0,G,control,1,3,3,356
10,1,Block1,32,Uncued,0,0,NONMATCH,v2,E,4back,1,3,3,418
10,1,Block2,1,Uncued,2,0,NONMATCH,t1,Z,control,1,3,3,345
10,1,Block2,2,Uncued,4,0,NONMATCH,v1,K,control,1,3,3,279
10,1,Block2,3,Uncued,0,0,NONMATCH,t2,Z,2back,1,3,3,265
10,1,Block2,4,Uncued,0,0,NONMATCH,0,A,control,1,3,3,434
10,1,Block2,5,Uncued,0,0,NONMATCH,d1,B,control,1,3,3,355
10,1,Block2,6,Uncued,0,0,NONMATCH,v2,K,4back,1,3,3,421
10,1,Block2,7,Uncued,2,0,NONMATCH,t1,L,control,1,3,3,737
10,1,Block2,8,Uncued,0,0,MATCH,d2,B,3back,1,4,4,693
10,1,Block2,9,Uncued,0,0,NONMATCH,t2,L,2back,1,3,3,246
10,1,Block2,10,Uncued,0,0,NONMATCH,d1,O,control,1,3,3,609
10,1,Block2,11,Uncued,0,0,NONMATCH,0,P,control,1,3,3,379
10,1,Block2,12,Uncued,0,0,NONMATCH,0,J,control,1,3,3,614
10,1,Block2,13,Uncued,0,0,MATCH,d2,O,3back,1,4,4,591
10,1,Block2,14,Uncued,0,0,NONMATCH,d1,T,control,1,3,3,478
10,1,Block2,15,Uncued,0,0,NONMATCH,0,D,control,1,3,3,557
10,1,Block2,16,Uncued,2,0,NONMATCH,t1,M,control,1,3,3,633
10,1,Block2,17,Uncued,0,0,MATCH,d2,T,3back,1,4,4,646
10,1,Block2,18,Uncued,0,0,NONMATCH,t2,M,2back,1,3,3,369
10,1,Block2,19,Uncued,4,0,NONMATCH,v1,E,control,1,3,3,854
10,1,Block2,20,Uncued,0,0,NONMATCH,0,W,control,1,3,3,490
10,1,Block2,21,Uncued,0,0,NONMATCH,d1,S,control,1,3,3,509
10,1,Block2,22,Uncued,0,0,NONMATCH,0,C,control,1,3,3,464
10,1,Block2,23,Uncued,0,0,NONMATCH,v2,E,4back,1,3,3,815
10,1,Block2,24,Uncued,0,0,MATCH,d2,S,3back,0,4,3,606
10,1,Block2,25,Uncued,2,0,NONMATCH,t1,H,control,1,3,3,698
10,1,Block2,26,Uncued,4,0,NONMATCH,v1,G,control,1,3,3,460
10,1,Block2,27,Uncued,0,0,NONMATCH,t2,H,2back,0,3,4,653
10,1,Block2,28,Uncued,4,0,NONMATCH,v1,R,control,1,3,3,402
10,1,Block2,29,Uncued,0,0,NONMATCH,0,Y,control,1,3,3,774
10,1,Block2,30,Uncued,0,0,NONMATCH,0,U,control,0,3,4,657
10,1,Block2,31,Uncued,0,0,NONMATCH,v2,G,4back,1,3,3,736
10,1,Block2,32,Uncued,0,0,NONMATCH,v2,R,4back,1,3,3,1145
10,1,Block3,1,Cued,4,0,NONMATCH,v1,J,control,1,3,3,1035
10,1,Block3,2,Cued,0,0,NONMATCH,0,B,control,1,3,3,519
10,1,Block3,3,Cued,0,0,NONMATCH,d1,A,control,1,3,3,514
10,1,Block3,4,Cued,0,0,NONMATCH,0,P,control,1,3,3,519
10,1,Block3,5,Cued,0,0,NONMATCH,v2,J,4back,1,3,3,501
10,1,Block3,6,Cued,0,0,MATCH,d2,A,3back,0,4,3,632
10,1,Block3,7,Cued,2,0,NONMATCH,t1,H,control,1,3,3,1213
10,1,Block3,8,Cued,4,0,NONMATCH,v1,S,control,1,3,3,905
10,1,Block3,9,Cued,0,0,NONMATCH,t2,H,2back,1,3,3,1150
10,1,Block3,10,Cued,0,0,NONMATCH,0,K,control,1,3,3,753
10,1,Block3,11,Cued,0,0,NONMATCH,d1,L,control,1,3,3,588
10,1,Block3,12,Cued,0,0,NONMATCH,v2,S,4back,1,3,3,968
10,1,Block3,13,Cued,0,0,NONMATCH,0,Y,control,1,3,3,710
10,1,Block3,14,Cued,0,0,MATCH,d2,L,3back,1,4,4,527
10,1,Block3,15,Cued,0,0,NONMATCH,d1,Z,control,1,3,3,440
10,1,Block3,16,Cued,0,0,NONMATCH,0,O,control,1,3,3,587
10,1,Block3,17,Cued,2,0,NONMATCH,t1,R,control,1,3,3,610
10,1,Block3,18,Cued,0,0,MATCH,d2,Z,3back,1,4,4,694
10,1,Block3,19,Cued,0,0,NONMATCH,t2,R,2back,1,3,3,1238
10,1,Block3,20,Cued,4,0,NONMATCH,v1,G,control,1,3,3,848
10,1,Block3,21,Cued,0,0,NONMATCH,0,M,control,1,3,3,1011
10,1,Block3,22,Cued,0,0,NONMATCH,d1,C,control,1,3,3,758
10,1,Block3,23,Cued,0,0,NONMATCH,0,W,control,1,3,3,428
10,1,Block3,24,Cued,0,0,NONMATCH,v2,G,4back,0,3,4,767
10,1,Block3,25,Cued,0,0,MATCH,d2,C,3back,0,4,3,721
10,1,Block3,26,Cued,2,0,NONMATCH,t1,U,control,1,3,3,715
10,1,Block3,27,Cued,4,0,NONMATCH,v1,D,control,1,3,3,1040
10,1,Block3,28,Cued,0,0,NONMATCH,t2,U,2back,1,3,3,1477
10,1,Block3,29,Cued,0,0,NONMATCH,0,E,control,1,3,3,564
10,1,Block3,30,Cued,2,0,NONMATCH,t1,T,control,1,3,3,863
10,1,Block3,31,Cued,0,0,NONMATCH,v2,D,4back,1,3,3,646
10,1,Block3,32,Cued,0,0,NONMATCH,t2,T,2back,0,3,4,799
10,1,Block4,1,Cued,2,0,NONMATCH,t1,S,control,1,3,3,1096
10,1,Block4,2,Cued,0,0,NONMATCH,d1,B,control,1,3,3,518
10,1,Block4,3,Cued,0,0,NONMATCH,t2,S,2back,1,3,3,973
10,1,Block4,4,Cued,0,0,NONMATCH,0,Z,control,1,3,3,647
10,1,Block4,5,Cued,0,0,MATCH,d2,B,3back,0,4,3,683
10,1,Block4,6,Cued,4,0,NONMATCH,v1,C,control,1,3,3,1345
10,1,Block4,7,Cued,0,0,NONMATCH,0,A,control,1,3,3,891
10,1,Block4,8,Cued,0,0,NONMATCH,d1,G,control,1,3,3,769
10,1,Block4,9,Cued,0,0,NONMATCH,0,R,control,1,3,3,757
10,1,Block4,10,Cued,0,0,NONMATCH,v2,C,4back,1,3,3,797
10,1,Block4,11,Cued,0,0,MATCH,d2,G,3back,1,4,4,795
10,1,Block4,12,Cued,4,0,NONMATCH,v1,O,control,1,3,3,476
10,1,Block4,13,Cued,4,0,NONMATCH,v1,E,control,1,3,3,738
10,1,Block4,14,Cued,0,0,NONMATCH,0,L,control,1,3,3,1045
10,1,Block4,15,Cued,0,0,NONMATCH,0,H,control,1,3,3,769
10,1,Block4,16,Cued,0,0,NONMATCH,v2,O,4back,1,3,3,1377
10,1,Block4,17,Cued,0,0,NONMATCH,v2,E,4back,0,3,4,619
10,1,Block4,18,Cued,2,0,NONMATCH,t1,K,control,1,3,3,414
10,1,Block4,19,Cued,4,0,NONMATCH,v1,P,control,1,3,3,1019
10,1,Block4,20,Cued,0,0,NONMATCH,t2,K,2back,1,3,3,1473
10,1,Block4,21,Cued,0,0,NONMATCH,0,J,control,1,3,3,849
10,1,Block4,22,Cued,2,0,NONMATCH,t1,Y,control,1,3,3,870
10,1,Block4,23,Cued,0,0,NONMATCH,v2,P,4back,1,3,3,1513
10,1,Block4,24,Cued,0,0,NONMATCH,t2,Y,2back,1,3,3,887
10,1,Block4,25,Cued,0,0,NONMATCH,d1,U,control,1,3,3,860
10,1,Block4,26,Cued,0,0,NONMATCH,0,M,control,1,3,3,654
10,1,Block4,27,Cued,0,0,NONMATCH,d1,W,control,1,3,3,769
10,1,Block4,28,Cued,0,0,MATCH,d2,U,3back,1,4,4,754
10,1,Block4,29,Cued,2,0,NONMATCH,t1,T,control,1,3,3,423
10,1,Block4,30,Cued,0,0,MATCH,d2,W,3back,1,4,4,972
10,1,Block4,31,Cued,0,0,NONMATCH,t2,T,2back,1,3,3,330
10,1,Block4,32,Cued,0,0,NONMATCH,0,D,control,1,3,3,738
11,1,Block1,1,Uncued,2,0,NONMATCH,t1,C,control,0,4,3,728
11,1,Block1,2,Uncued,4,0,NONMATCH,v1,J,control,0,4,3,625
11,1,Block1,3,Uncued,0,0,NONMATCH,t2,C,2back,1,4,4,754
11,1,Block1,4,Uncued,0,0,NONMATCH,0,G,control,0,4,3,487
11,1,Block1,5,Uncued,2,0,NONMATCH,t1,K,control,1,4,4,457
11,1,Block1,6,Uncued,0,0,NONMATCH,v2,J,4back,1,4,4,886
11,1,Block1,7,Uncued,0,0,NONMATCH,t2,K,2back,0,4,3,960
11,1,Block1,8,Uncued,0,0,NONMATCH,d1,Z,control,1,4,4,1174
11,1,Block1,9,Uncued,0,0,NONMATCH,0,D,control,1,4,4,932
11,1,Block1,10,Uncued,0,0,NONMATCH,d1,Y,control,1,4,4,843
11,1,Block1,11,Uncued,0,0,MATCH,d2,Z,3back,1,3,3,1278
11,1,Block1,12,Uncued,0,0,NONMATCH,0,S,control,0,4,3,1399
11,1,Block1,13,Uncued,0,0,MATCH,d2,Y,3back,0,3,4,808
11,1,Block1,14,Uncued,4,0,NONMATCH,v1,P,control,1,4,4,726
11,1,Block1,15,Uncued,2,0,NONMATCH,t1,A,control,1,4,4,396
11,1,Block1,16,Uncued,0,0,NONMATCH,0,U,control,1,4,4,677
11,1,Block1,17,Uncued,0,0,NONMATCH,t2,A,2back,0,4,3,508
11,1,Block1,18,Uncued,0,0,NONMATCH,v2,P,4back,1,4,4,634
11,1,Block1,19,Uncued,4,0,NONMATCH,v1,T,control,1,4,4,627
11,1,Block1,20,Uncued,0,0,NONMATCH,0,O,control,1,4,4,540
11,1,Block1,21,Uncued,0,0,NONMATCH,0,B,control,1,4,4,553
11,1,Block1,22,Uncued,0,0,NONMATCH,d1,R,control,1,4,4,772
11,1,Block1,23,Uncued,0,0,NONMATCH,v2,T,4back,1,4,4,808
11,1,Block1,24,Uncued,4,0,NONMATCH,v1,H,control,1,4,4,394
11,1,Block1,25,Uncued,0,0,MATCH,d2,R,3back,0,3,4,521
11,1,Block1,26,Uncued,0,0,NONMATCH,0,W,control,1,4,4,889
11,1,Block1,27,Uncued,0,0,NONMATCH,d1,E,control,1,4,4,471
11,1,Block1,28,Uncued,0,0,NONMATCH,v2,H,4back,1,4,4,487
11,1,Block1,29,Uncued,2,0,NONMATCH,t1,L,control,1,4,4,1048
11,1,Block1,30,Uncued,0,0,MATCH,d2,E,3back,1,3,3,687
11,1,Block1,31,Uncued,0,0,NONMATCH,t2,L,2back,0,4,3,662
11,1,Block1,32,Uncued,0,0,NONMATCH,0,M,control,1,4,4,435
11,1,Block2,1,Uncued,0,0,NONMATCH,d1,B,control,1,4,4,1116
11,1,Block2,2,Uncued,0,0,NONMATCH,0,Z,control,1,4,4,310
11,1,Block2,3,Uncued,2,0,NONMATCH,t1,O,control,1,4,4,488
11,1,Block2,4,Uncued,0,0,MATCH,d2,B,3back,0,3,4,458
11,1,Block2,5,Uncued,0,0,NONMATCH,t2,O,2back,0,4,3,508
11,1,Block2,6,Uncued,2,0,NONMATCH,t1,P,control,1,4,4,574
11,1,Block2,7,Uncued,4,0,NONMATCH,v1,H,control,1,4,4,320
11,1,Block2,8,Uncued,0,0,NONMATCH,t2,P,2back,0,4,3,525
11,1,Block2,9,Uncued,0,0,NONMATCH,0,R,control,1,4,4,283
11,1,Block2,10,Uncued,0,0,NONMATCH,d1,S,control,1,4,4,343
11,1,Block2,11,Uncued,0,0,NONMATCH,v2,H,4back,1,4,4,313
11,1,Block2,12,Uncued,0,0,NONMATCH,0,L,control,1,4,4,387
11,1,Block2,13,Uncued,0,0,MATCH,d2,S,3back,1,3,3,334
11,1,Block2,14,Uncued,0,0,NONMATCH,d1,W,control,1,4,4,272
11,1,Block2,15,Uncued,4,0,NONMATCH,v1,K,control,1,4,4,277
11,1,Block2,16,Uncued,0,0,NONMATCH,0,C,control,1,4,4,139
11,1,Block2,17,Uncued,0,0,MATCH,d2,W,3back,0,3,4,287
11,1,Block2,18,Uncued,4,0,NONMATCH,v1,M,control,1,4,4,289
11,1,Block2,19,Uncued,0,0,NONMATCH,v2,K,4back,0,4,3,464
11,1,Block2,20,Uncued,4,0,NONMATCH,v1,A,control,1,4,4,404
11,1,Block2,21,Uncued,0,0,NONMATCH,0,T,control,1,4,4,187
11,1,Block2,22,Uncued,0,0,NONMATCH,v2,M,4back,1,4,4,268
11,1,Block2,23,Uncued,0,0,NONMATCH,d1,E,control,1,4,4,331
11,1,Block2,24,Uncued,0,0,NONMATCH,v2,A,4back,1,4,4,409
11,1,Block2,25,Uncued,0,0,NONMATCH,0,Y,control,1,4,4,630
11,1,Block2,26,Uncued,0,0,MATCH,d2,E,3back,0,3,4,454
11,1,Block2,27,Uncued,2,0,NONMATCH,t1,G,control,1,4,4,348
11,1,Block2,28,Uncued,0,0,NONMATCH,0,D,control,1,4,4,214
11,1,Block2,29,Uncued,0,0,NONMATCH,t2,G,2back,1,4,4,353
11,1,Block2,30,Uncued,2,0,NONMATCH,t1,U,control,1,4,4,530
11,1,Block2,31,Uncued,0,0,NONMATCH,0,J,control,1,4,4,495
11,1,Block2,32,Uncued,0,0,NONMATCH,t2,U,2back,1,4,4,333
11,1,Block3,1,Cued,4,0,NONMATCH,v1,Z,control,0,4,,0
11,1,Block3,2,Cued,2,0,NONMATCH,t1,C,control,1,4,4,67
11,1,Block3,3,Cued,0,0,NONMATCH,0,U,control,1,4,4,576
11,1,Block3,4,Cued,0,0,NONMATCH,t2,C,2back,0,4,3,433
11,1,Block3,5,Cued,0,0,NONMATCH,v2,Z,4back,1,4,4,892
11,1,Block3,6,Cued,4,0,NONMATCH,v1,H,control,1,4,4,933
11,1,Block3,7,Cued,0,0,NONMATCH,0,W,control,1,4,4,472
11,1,Block3,8,Cued,4,0,NONMATCH,v1,O,control,1,4,4,346
11,1,Block3,9,Cued,0,0,NONMATCH,0,J,control,1,4,4,419
11,1,Block3,10,Cued,0,0,NONMATCH,v2,H,4back,0,4,3,510
11,1,Block3,11,Cued,0,0,NONMATCH,d1,E,control,1,4,4,274
11,1,Block3,12,Cued,0,0,NONMATCH,v2,O,4back,1,4,4,312
11,1,Block3,13,Cued,2,0,NONMATCH,t1,R,control,1,4,4,308
11,1,Block3,14,Cued,0,0,MATCH,d2,E,3back,1,3,3,443
11,1,Block3,15,Cued,0,0,NONMATCH,t2,R,2back,1,4,4,208
11,1,Block3,16,Cued,0,0,NONMATCH,d1,M,control,1,4,4,468
11,1,Block3,17,Cued,0,0,NONMATCH,0,B,control,1,4,4,660
11,1,Block3,18,Cued,2,0,NONMATCH,t1,Y,control,1,4,4,369
11,1,Block3,19,Cued,0,0,MATCH,d2,M,3back,0,3,4,422
11,1,Block3,20,Cued,0,0,NONMATCH,t2,Y,2back,1,4,4,376
11,1,Block3,21,Cued,0,0,NONMATCH,d1,G,control,1,4,4,442
11,1,Block3,22,Cued,0,0,NONMATCH,0,P,control,1,4,4,428
11,1,Block3,23,Cued,2,0,NONMATCH,t1,D,control,1,4,4,435
11,1,Block3,24,Cued,0,0,MATCH,d2,G,3back,0,3,4,496
11,1,Block3,25,Cued,0,0,NONMATCH,t2,D,2back,1,4,4,552
11,1,Block3,26,Cued,4,0,NONMATCH,v1,L,control,1,4,4,680
11,1,Block3,27,Cued,0,0,NONMATCH,0,K,control,1,4,4,283
11,1,Block3,28,Cued,0,0,NONMATCH,0,T,control,1,4,4,234
11,1,Block3,29,Cued,0,0,NONMATCH,d1,S,control,1,4,4,209
11,1,Block3,30,Cued,0,0,NONMATCH,v2,L,4back,1,4,4,212
11,1,Block3,31,Cued,0,0,NONMATCH,0,A,control,1,4,4,258
11,1,Block3,32,Cued,0,0,MATCH,d2,S,3back,1,3,3,341
11,1,Block4,1,Cued,0,0,NONMATCH,d1,G,control,1,4,4,738
11,1,Block4,2,Cued,0,0,NONMATCH,0,L,control,1,4,4,295
11,1,Block4,3,Cued,0,0,NONMATCH,d1,W,control,1,4,4,212
11,1,Block4,4,Cued,0,0,MATCH,d2,G,3back,0,3,4,287
11,1,Block4,5,Cued,0,0,NONMATCH,0,D,control,1,4,4,411
11,1,Block4,6,Cued,0,0,MATCH,d2,W,3back,1,3,3,370
11,1,Block4,7,Cued,0,0,NONMATCH,d1,T,control,1,4,4,338
11,1,Block4,8,Cued,0,0,NONMATCH,0,K,control,1,4,4,250
11,1,Block4,9,Cued,2,0,NONMATCH,t1,C,control,1,4,4,185
11,1,Block4,10,Cued,0,0,MATCH,d2,T,3back,0,3,4,248
11,1,Block4,11,Cued,0,0,NONMATCH,t2,C,2back,1,4,4,492
11,1,Block4,12,Cued,4,0,NONMATCH,v1,P,control,1,4,4,511
11,1,Block4,13,Cued,0,0,NONMATCH,0,R,control,1,4,4,505
11,1,Block4,14,Cued,4,0,NONMATCH,v1,U,control,1,4,4,325
11,1,Block4,15,Cued,0,0,NONMATCH,0,O,control,1,4,4,287
11,1,Block4,16,Cued,0,0,NONMATCH,v2,P,4back,1,4,4,535
11,1,Block4,17,Cued,4,0,NONMATCH,v1,M,control,1,4,4,338
11,1,Block4,18,Cued,0,0,NONMATCH,v2,U,4back,1,4,4,395
11,1,Block4,19,Cued,0,0,NONMATCH,0,H,control,1,4,4,450
11,1,Block4,20,Cued,2,0,NONMATCH,t1,S,control,1,4,4,472
11,1,Block4,21,Cued,0,0,NONMATCH,v2,M,4back,1,4,4,284
11,1,Block4,22,Cued,0,0,NONMATCH,t2,S,2back,1,4,4,357
11,1,Block4,23,Cued,2,0,NONMATCH,t1,Y,control,1,4,4,259
11,1,Block4,24,Cued,0,0,NONMATCH,0,E,control,1,4,4,195
11,1,Block4,25,Cued,0,0,NONMATCH,t2,Y,2back,1,4,4,398
11,1,Block4,26,Cued,2,0,NONMATCH,t1,J,control,1,4,4,293
11,1,Block4,27,Cued,0,0,NONMATCH,d1,A,control,1,4,4,383
11,1,Block4,28,Cued,0,0,NONMATCH,t2,J,2back,1,4,4,353
11,1,Block4,29,Cued,2,0,NONMATCH,t1,Z,control,1,4,4,350
11,1,Block4,30,Cued,0,0,MATCH,d2,A,3back,0,3,4,264
11,1,Block4,31,Cued,0,0,NONMATCH,t2,Z,2back,0,4,3,491
11,1,Block4,32,Cued,0,0,NONMATCH,0,B,control,1,4,4,312
12,1,Block1,1,Uncued,0,0,NONMATCH,0,T,control,1,3,3,555
12,1,Block1,2,Uncued,0,0,NONMATCH,d1,B,control,1,3,3,481
12,1,Block1,3,Uncued,0,0,NONMATCH,0,S,control,1,3,3,495
12,1,Block1,4,Uncued,0,0,NONMATCH,d1,Z,control,1,3,3,497
12,1,Block1,5,Uncued,0,0,MATCH,d2,B,3back,0,4,3,430
12,1,Block1,6,Uncued,0,0,NONMATCH,0,A,control,1,3,3,1227
12,1,Block1,7,Uncued,0,0,MATCH,d2,Z,3back,1,4,4,1000
12,1,Block1,8,Uncued,2,0,NONMATCH,t1,P,control,1,3,3,1053
12,1,Block1,9,Uncued,4,0,NONMATCH,v1,Y,control,1,3,3,887
12,1,Block1,10,Uncued,0,0,NONMATCH,t2,P,2back,0,3,4,804
12,1,Block1,11,Uncued,4,0,NONMATCH,v1,H,control,1,3,3,1016
12,1,Block1,12,Uncued,0,0,NONMATCH,0,U,control,1,3,3,771
12,1,Block1,13,Uncued,0,0,NONMATCH,v2,Y,4back,0,3,,0
12,1,Block1,14,Uncued,4,0,NONMATCH,v1,G,control,1,3,3,76
12,1,Block1,15,Uncued,0,0,NONMATCH,v2,H,4back,0,3,4,1039
12,1,Block1,16,Uncued,0,0,NONMATCH,0,O,control,1,3,3,651
12,1,Block1,17,Uncued,2,0,NONMATCH,t1,C,control,1,3,3,856
12,1,Block1,18,Uncued,0,0,NONMATCH,v2,G,4back,1,3,3,710
12,1,Block1,19,Uncued,0,0,NONMATCH,t2,C,2back,1,3,3,884
12,1,Block1,20,Uncued,2,0,NONMATCH,t1,D,control,1,3,3,575
12,1,Block1,21,Uncued,0,0,NONMATCH,0,J,control,1,3,3,660
12,1,Block1,22,Uncued,0,0,NONMATCH,t2,D,2back,1,3,3,1762
12,1,Block1,23,Uncued,2,0,NONMATCH,t1,M,control,1,3,3,853
12,1,Block1,24,Uncued,4,0,NONMATCH,v1,R,control,1,3,3,895
12,1,Block1,25,Uncued,0,0,NONMATCH,t2,M,2back,1,3,3,848
12,1,Block1,26,Uncued,0,0,NONMATCH,0,E,control,1,3,3,922
12,1,Block1,27,Uncued,0,0,NONMATCH,d1,K,control,1,3,3,729
12,1,Block1,28,Uncued,0,0,NONMATCH,v2,R,4back,0,3,4,990
12,1,Block1,29,Uncued,0,0,NONMATCH,d1,W,control,1,3,3,698
12,1,Block1,30,Uncued,0,0,MATCH,d2,K,3back,0,4,3,1419
12,1,Block1,31,Uncued,0,0,NONMATCH,0,L,control,1,3,3,691
12,1,Block1,32,Uncued,0,0,MATCH,d2,W,3back,0,4,3,890
12,1,Block2,1,Uncued,2,0,NONMATCH,t1,Y,control,1,3,3,743
12,1,Block2,2,Uncued,0,0,NONMATCH,d1,J,control,1,3,3,812
12,1,Block2,3,Uncued,0,0,NONMATCH,t2,Y,2back,0,3,4,770
12,1,Block2,4,Uncued,2,0,NONMATCH,t1,T,control,1,3,3,1510
12,1,Block2,5,Uncued,0,0,MATCH,d2,J,3back,1,4,4,1339
12,1,Block2,6,Uncued,0,0,NONMATCH,t2,T,2back,1,3,3,1443
12,1,Block2,7,Uncued,4,0,NONMATCH,v1,P,control,1,3,3,850
12,1,Block2,8,Uncued,0,0,NONMATCH,0,M,control,1,3,3,687
12,1,Block2,9,Uncued,4,0,NONMATCH,v1,A,control,1,3,3,746
12,1,Block2,10,Uncued,0,0,NONMATCH,0,D,control,1,3,3,746
12,1,Block2,11,Uncued,0,0,NONMATCH,v2,P,4back,1,3,3,796
12,1,Block2,12,Uncued,0,0,NONMATCH,d1,Z,control,1,3,3,773
12,1,Block2,13,Uncued,0,0,NONMATCH,v2,A,4back,0,3,4,2525
12,1,Block2,14,Uncued,4,0,NONMATCH,v1,H,control,1,3,3,763
12,1,Block2,15,Uncued,0,0,MATCH,d2,Z,3back,0,4,3,902
12,1,Block2,16,Uncued,0,0,NONMATCH,0,K,control,1,3,3,1096
12,1,Block2,17,Uncued,2,0,NONMATCH,t1,S,control,1,3,3,947
12,1,Block2,18,Uncued,0,0,NONMATCH,v2,H,4back,1,3,3,914
12,1,Block2,19,Uncued,0,0,NONMATCH,t2,S,2back,0,3,4,964
12,1,Block2,20,Uncued,0,0,NONMATCH,d1,G,control,1,3,3,1581
12,1,Block2,21,Uncued,0,0,NONMATCH,0,L,control,1,3,3,692
12,1,Block2,22,Uncued,0,0,NONMATCH,0,C,control,1,3,3,884
12,1,Block2,23,Uncued,0,0,MATCH,d2,G,3back,1,4,4,844
12,1,Block2,24,Uncued,0,0,NONMATCH,d1,W,control,1,3,3,663
12,1,Block2,25,Uncued,4,0,NONMATCH,v1,O,control,1,3,3,645
12,1,Block2,26,Uncued,0,0,NONMATCH,0,R,control,1,3,3,695
12,1,Block2,27,Uncued,0,0,MATCH,d2,W,3back,1,4,4,841
12,1,Block2,28,Uncued,0,0,NONMATCH,0,B,control,1,3,3,715
12,1,Block2,29,Uncued,0,0,NONMATCH,v2,O,4back,0,3,4,1142
12,1,Block2,30,Uncued,2,0,NONMATCH,t1,E,control,1,3,3,1121
12,1,Block2,31,Uncued,0,0,NONMATCH,0,U,control,1,3,3,591
12,1,Block2,32,Uncued,0,0,NONMATCH,t2,E,2back,1,3,3,802
12,1,Block3,1,Cued,0,0,NONMATCH,0,B,control,1,3,3,1168
12,1,Block3,2,Cued,0,0,NONMATCH,d1,S,control,1,3,3,786
12,1,Block3,3,Cued,0,0,NONMATCH,0,G,control,1,3,3,796
12,1,Block3,4,Cued,0,0,NONMATCH,0,Z,control,1,3,3,624
12,1,Block3,5,Cued,0,0,MATCH,d2,S,3back,1,4,4,873
12,1,Block3,6,Cued,0,0,NONMATCH,0,J,control,1,3,3,711
12,1,Block3,7,Cued,0,0,NONMATCH,0,U,control,1,3,3,897
12,1,Block3,8,Cued,0,0,NONMATCH,d1,L,control,1,3,3,702
12,1,Block3,9,Cued,0,0,NONMATCH,0,K,control,1,3,3,585
12,1,Block3,10,Cued,2,0,NONMATCH,t1,O,control,1,3,3,496
12,1,Block3,11,Cued,0,0,MATCH,d2,L,3back,0,4,3,960
12,1,Block3,12,Cued,0,0,NONMATCH,t2,O,2back,1,3,3,1184
12,1,Block3,13,Cued,0,0,NONMATCH,d1,H,control,1,3,3,853
12,1,Block3,14,Cued,4,0,NONMATCH,v1,P,control,1,3,3,861
12,1,Block3,15,Cued,4,0,NONMATCH,v1,T,control,1,3,3,1225
12,1,Block3,16,Cued,0,0,MATCH,d2,H,3back,1,4,4,1103
12,1,Block3,17,Cued,0,0,NONMATCH,d1,E,control,1,3,3,708
12,1,Block3,18,Cued,0,0,NONMATCH,v2,P,4back,1,3,3,575
12,1,Block3,19,Cued,0,0,NONMATCH,v2,T,4back,1,3,3,552
12,1,Block3,20,Cued,0,0,MATCH,d2,E,3back,0,4,3,950
12,1,Block3,21,Cued,4,0,NONMATCH,v1,Y,control,1,3,3,576
12,1,Block3,22,Cued,0,0,NONMATCH,0,D,control,1,3,3,595
12,1,Block3,23,Cued,4,0,NONMATCH,v1,C,control,1,3,3,973
12,1,Block3,24,Cued,0,0,NONMATCH,0,R,control,1,3,3,1017
12,1,Block3,25,Cued,0,0,NONMATCH,v2,Y,4back,0,3,4,1310
12,1,Block3,26,Cued,2,0,NONMATCH,t1,A,control,1,3,3,1298
12,1,Block3,27,Cued,0,0,NONMATCH,v2,C,4back,1,3,3,977
12,1,Block3,28,Cued,0,0,NONMATCH,t2,A,2back,1,3,3,773
12,1,Block3,29,Cued,2,0,NONMATCH,t1,M,control,1,3,3,1031
12,1,Block3,30,Cued,2,0,NONMATCH,t1,W,control,1,3,3,641
12,1,Block3,31,Cued,0,0,NONMATCH,t2,M,2back,1,3,3,1047
12,1,Block3,32,Cued,0,0,NONMATCH,t2,W,2back,1,3,3,1379
12,1,Block4,1,Cued,4,0,NONMATCH,v1,D,control,1,3,3,1002
12,1,Block4,2,Cued,2,0,NONMATCH,t1,H,control,1,3,3,811
12,1,Block4,3,Cued,0,0,NONMATCH,0,Z,control,1,3,3,887
12,1,Block4,4,Cued,0,0,NONMATCH,t2,H,2back,1,3,3,1205
12,1,Block4,5,Cued,0,0,NONMATCH,v2,D,4back,1,3,3,1977
12,1,Block4,6,Cued,2,0,NONMATCH,t1,Y,control,1,3,3,781
12,1,Block4,7,Cued,0,0,NONMATCH,d1,L,control,1,3,3,713
12,1,Block4,8,Cued,0,0,NONMATCH,t2,Y,2back,1,3,3,539
12,1,Block4,9,Cued,0,0,NONMATCH,0,U,control,1,3,3,611
12,1,Block4,10,Cued,0,0,MATCH,d2,L,3back,1,4,4,2302
12,1,Block4,11,Cued,4,0,NONMATCH,v1,S,control,1,3,3,607
12,1,Block4,12,Cued,2,0,NONMATCH,t1,C,control,1,3,3,882
12,1,Block4,13,Cued,0,0,NONMATCH,0,O,control,1,3,3,739
12,1,Block4,14,Cued,0,0,NONMATCH,t2,C,2back,1,3,3,891
12,1,Block4,15,Cued,0,0,NONMATCH,v2,S,4back,0,3,4,1803
12,1,Block4,16,Cued,2,0,NONMATCH,t1,W,control,1,3,3,1270
12,1,Block4,17,Cued,0,0,NONMATCH,d1,M,control,1,3,3,853
12,1,Block4,18,Cued,0,0,NONMATCH,t2,W,2back,1,3,3,992
12,1,Block4,19,Cued,0,0,NONMATCH,0,B,control,1,3,3,688
12,1,Block4,20,Cued,0,0,MATCH,d2,M,3back,0,4,3,1397
12,1,Block4,21,Cued,0,0,NONMATCH,d1,G,control,1,3,3,1039
12,1,Block4,22,Cued,4,0,NONMATCH,v1,E,control,1,3,3,870
12,1,Block4,23,Cued,0,0,NONMATCH,0,J,control,1,3,3,740
12,1,Block4,24,Cued,0,0,MATCH,d2,G,3back,1,4,4,862
12,1,Block4,25,Cued,0,0,NONMATCH,d1,P,control,1,3,3,451
12,1,Block4,26,Cued,0,0,NONMATCH,v2,E,4back,1,3,3,517
12,1,Block4,27,Cued,4,0,NONMATCH,v1,R,control,1,3,3,800
12,1,Block4,28,Cued,0,0,MATCH,d2,P,3back,1,4,4,711
12,1,Block4,29,Cued,0,0,NONMATCH,0,K,control,1,3,3,434
12,1,Block4,30,Cued,0,0,NONMATCH,0,A,control,1,3,3,550
12,1,Block4,31,Cued,0,0,NONMATCH,v2,R,4back,1,3,3,685
12,1,Block4,32,Cued,0,0,NONMATCH,0,T,control,1,3,3,683
13,1,Block1,1,Uncued,0,0,NONMATCH,d1,P,control,0,3,4,1138
13,1,Block1,2,Uncued,0,0,NONMATCH,0,K,control,1,3,3,706
13,1,Block1,3,Uncued,4,0,NONMATCH,v1,G,control,1,3,3,658
13,1,Block1,4,Uncued,0,0,MATCH,d2,P,3back,1,4,4,432
13,1,Block1,5,Uncued,0,0,NONMATCH,0,E,control,1,3,3,454
13,1,Block1,6,Uncued,2,0,NONMATCH,t1,U,control,1,3,3,505
13,1,Block1,7,Uncued,0,0,NONMATCH,v2,G,4back,0,3,4,668
13,1,Block1,8,Uncued,0,0,NONMATCH,t2,U,2back,1,3,3,484
13,1,Block1,9,Uncued,0,0,NONMATCH,d1,B,control,1,3,3,600
13,1,Block1,10,Uncued,0,0,NONMATCH,0,Z,control,1,3,3,1065
13,1,Block1,11,Uncued,2,0,NONMATCH,t1,D,control,1,3,3,875
13,1,Block1,12,Uncued,0,0,MATCH,d2,B,3back,1,4,4,923
13,1,Block1,13,Uncued,0,0,NONMATCH,t2,D,2back,1,3,3,398
13,1,Block1,14,Uncued,0,0,NONMATCH,0,R,control,1,3,3,964
13,1,Block1,15,Uncued,0,0,NONMATCH,d1,W,control,1,3,3,473
13,1,Block1,16,Uncued,0,0,NONMATCH,0,A,control,1,3,3,567
13,1,Block1,17,Uncued,2,0,NONMATCH,t1,J,control,1,3,3,559
13,1,Block1,18,Uncued,0,0,MATCH,d2,W,3back,1,4,4,1134
13,1,Block1,19,Uncued,0,0,NONMATCH,t2,J,2back,1,3,3,1060
13,1,Block1,20,Uncued,2,0,NONMATCH,t1,L,control,1,3,3,880
13,1,Block1,21,Uncued,0,0,NONMATCH,d1,C,control,1,3,3,965
13,1,Block1,22,Uncued,0,0,NONMATCH,t2,L,2back,0,3,4,1294
13,1,Block1,23,Uncued,4,0,NONMATCH,v1,T,control,1,3,3,783
13,1,Block1,24,Uncued,0,0,MATCH,d2,C,3back,0,4,3,694
13,1,Block1,25,Uncued,0,0,NONMATCH,0,H,control,1,3,3,895
13,1,Block1,26,Uncued,4,0,NONMATCH,v1,O,control,1,3,3,720
13,1,Block1,27,Uncued,0,0,NONMATCH,v2,T,4back,1,3,3,1207
13,1,Block1,28,Uncued,4,0,NONMATCH,v1,S,control,1,3,3,623
13,1,Block1,29,Uncued,0,0,NONMATCH,0,Y,control,1,3,3,986
13,1,Block1,30,Uncued,0,0,NONMATCH,v2,O,4back,0,3,4,1228
13,1,Block1,31,Uncued,0,0,NONMATCH,0,M,control,1,3,3,745
13,1,Block1,32,Uncued,0,0,NONMATCH,v2,S,4back,1,3,3,1853
13,1,Block2,1,Uncued,2,0,NONMATCH,t1,J,control,0,3,4,1583
13,1,Block2,2,Uncued,4,0,NONMATCH,v1,D,control,0,3,4,1360
13,1,Block2,3,Uncued,0,0,NONMATCH,t2,J,2back,0,3,4,1389
13,1,Block2,4,Uncued,4,0,NONMATCH,v1,G,control,0,3,4,1156
13,1,Block2,5,Uncued,0,0,NONMATCH,v2,D,4back,0,3,,0
13,1,Block2,6,Uncued,0,0,NONMATCH,0,O,control,1,3,3,242
13,1,Block2,7,Uncued,0,0,NONMATCH,d1,Y,control,0,3,4,808
13,1,Block2,8,Uncued,0,0,NONMATCH,v2,G,4back,1,3,3,1492
13,1,Block2,9,Uncued,0,0,NONMATCH,d1,C,control,0,3,4,730
13,1,Block2,10,Uncued,0,0,MATCH,d2,Y,3back,1,4,4,946
13,1,Block2,11,Uncued,2,0,NONMATCH,t1,A,control,0,3,4,927
13,1,Block2,12,Uncued,0,0,MATCH,d2,C,3back,1,4,4,1225
13,1,Block2,13,Uncued,0,0,NONMATCH,t2,A,2back,1,3,3,781
13,1,Block2,14,Uncued,4,0,NONMATCH,v1,S,control,0,3,4,815
13,1,Block2,15,Uncued,0,0,NONMATCH,0,P,control,0,3,4,1252
13,1,Block2,16,Uncued,0,0,NONMATCH,0,T,control,0,3,4,769
13,1,Block2,17,Uncued,0,0,NONMATCH,d1,U,control,0,3,4,832
13,1,Block2,18,Uncued,0,0,NONMATCH,v2,S,4back,0,3,4,736
13,1,Block2,19,Uncued,0,0,NONMATCH,0,W,control,0,3,4,619
13,1,Block2,20,Uncued,0,0,MATCH,d2,U,3back,1,4,4,934
13,1,Block2,21,Uncued,0,0,NONMATCH,0,E,control,0,3,4,1009
13,1,Block2,22,Uncued,0,0,NONMATCH,d1,M,control,0,3,4,939
13,1,Block2,23,Uncued,0,0,NONMATCH,0,B,control,0,3,4,772
13,1,Block2,24,Uncued,2,0,NONMATCH,t1,Z,control,0,3,4,915
13,1,Block2,25,Uncued,0,0,MATCH,d2,M,3back,0,4,3,1452
13,1,Block2,26,Uncued,0,0,NONMATCH,t2,Z,2back,1,3,3,970
13,1,Block2,27,Uncued,4,0,NONMATCH,v1,H,control,0,3,4,563
13,1,Block2,28,Uncued,0,0,NONMATCH,0,L,control,0,3,4,487
13,1,Block2,29,Uncued,0,0,NONMATCH,0,K,control,0,3,4,507
13,1,Block2,30,Uncued,2,0,NONMATCH,t1,R,control,0,3,4,685
13,1,Block2,31,Uncued,0,0,NONMATCH,v2,H,4back,1,3,3,1087
13,1,Block2,32,Uncued,0,0,NONMATCH,t2,R,2back,0,3,4,339
13,1,Block3,1,Cued,0,0,NONMATCH,0,J,control,0,3,4,1172
13,1,Block3,2,Cued,0,0,NONMATCH,d1,C,control,0,3,4,621
13,1,Block3,3,Cued,0,0,NONMATCH,0,B,control,0,3,4,969
13,1,Block3,4,Cued,0,0,NONMATCH,d1,R,control,0,3,4,860
13,1,Block3,5,Cued,0,0,MATCH,d2,C,3back,1,4,4,841
13,1,Block3,6,Cued,2,0,NONMATCH,t1,H,control,0,3,4,1133
13,1,Block3,7,Cued,0,0,MATCH,d2,R,3back,1,4,4,609
13,1,Block3,8,Cued,0,0,NONMATCH,t2,H,2back,0,3,,0
13,1,Block3,9,Cued,4,0,NONMATCH,v1,Z,control,0,3,4,1903
13,1,Block3,10,Cued,2,0,NONMATCH,t1,O,control,0,3,4,2086
13,1,Block3,11,Cued,0,0,NONMATCH,0,U,control,0,3,4,993
13,1,Block3,12,Cued,0,0,NONMATCH,t2,O,2back,1,3,3,738
13,1,Block3,13,Cued,0,0,NONMATCH,v2,Z,4back,0,3,,0
13,1,Block3,14,Cued,2,0,NONMATCH,t1,W,control,0,3,4,1196
13,1,Block3,15,Cued,4,0,NONMATCH,v1,A,control,0,3,4,752
13,1,Block3,16,Cued,0,0,NONMATCH,t2,W,2back,0,3,4,1561
13,1,Block3,17,Cued,0,0,NONMATCH,0,Y,control,0,3,4,1207
13,1,Block3,18,Cued,0,0,NONMATCH,0,S,control,0,3,4,1708
13,1,Block3,19,Cued,0,0,NONMATCH,v2,A,4back,1,3,3,950
13,1,Block3,20,Cued,2,0,NONMATCH,t1,G,control,0,3,4,703
13,1,Block3,21,Cued,4,0,NONMATCH,v1,K,control,0,3,4,1181
13,1,Block3,22,Cued,0,0,NONMATCH,t2,G,2back,0,3,4,991
13,1,Block3,23,Cued,0,0,NONMATCH,0,L,control,0,3,4,488
13,1,Block3,24,Cued,0,0,NONMATCH,d1,T,control,0,3,4,594
13,1,Block3,25,Cued,0,0,NONMATCH,v2,K,4back,0,3,4,823
13,1,Block3,26,Cued,4,0,NONMATCH,v1,D,control,0,3,4,989
13,1,Block3,27,Cued,0,0,MATCH,d2,T,3back,1,4,4,552
13,1,Block3,28,Cued,0,0,NONMATCH,0,M,control,0,3,4,2300
13,1,Block3,29,Cued,0,0,NONMATCH,d1,E,control,0,3,4,1001
13,1,Block3,30,Cued,0,0,NONMATCH,v2,D,4back,0,3,4,502
13,1,Block3,31,Cued,0,0,NONMATCH,0,P,control,0,3,4,1948
13,1,Block3,32,Cued,0,0,MATCH,d2,E,3back,0,4,3,1089
13,1,Block4,1,Cued,0,0,NONMATCH,0,Y,control,0,3,4,1809
13,1,Block4,2,Cued,0,0,NONMATCH,d1,J,control,0,3,4,859
13,1,Block4,3,Cued,0,0,NONMATCH,0,U,control,0,3,4,842
13,1,Block4,4,Cued,2,0,NONMATCH,t1,B,control,0,3,4,790
13,1,Block4,5,Cued,0,0,MATCH,d2,J,3back,0,4,,0
13,1,Block4,6,Cued,0,0,NONMATCH,t2,B,2back,1,3,3,1178
13,1,Block4,7,Cued,4,0,NONMATCH,v1,T,control,0,3,4,1258
13,1,Block4,8,Cued,2,0,NONMATCH,t1,P,control,0,3,4,1719
13,1,Block4,9,Cued,0,0,NONMATCH,0,K,control,0,3,4,612
13,1,Block4,10,Cued,0,0,NONMATCH,t2,P,2back,1,3,3,1350
13,1,Block4,11,Cued,0,0,NONMATCH,v2,T,4back,0,3,4,1190
13,1,Block4,12,Cued,0,0,NONMATCH,0,R,control,0,3,,0
13,1,Block4,13,Cued,2,0,NONMATCH,t1,E,control,0,3,4,1203
13,1,Block4,14,Cued,0,0,NONMATCH,d1,C,control,0,3,4,546
13,1,Block4,15,Cued,0,0,NONMATCH,t2,E,2back,0,3,4,1136
13,1,Block4,16,Cued,2,0,NONMATCH,t1,A,control,0,3,4,1362
13,1,Block4,17,Cued,0,0,MATCH,d2,C,3back,1,4,4,1105
13,1,Block4,18,Cued,0,0,NONMATCH,t2,A,2back,0,3,4,1307
13,1,Block4,19,Cued,4,0,NONMATCH,v1,W,control,0,3,4,1398
13,1,Block4,20,Cued,0,0,NONMATCH,0,G,control,0,3,4,765
13,1,Block4,21,Cued,0,0,NONMATCH,0,L,control,0,3,4,587
13,1,Block4,22,Cued,0,0,NONMATCH,d1,O,control,0,3,4,912
13,1,Block4,23,Cued,0,0,NONMATCH,v2,W,4back,1,3,3,931
13,1,Block4,24,Cued,0,0,NONMATCH,0,M,control,0,3,4,668
13,1,Block4,25,Cued,0,0,MATCH,d2,O,3back,0,4,3,1675
13,1,Block4,26,Cued,0,0,NONMATCH,d1,H,control,0,3,4,646
13,1,Block4,27,Cued,4,0,NONMATCH,v1,D,control,0,3,4,454
13,1,Block4,28,Cued,4,0,NONMATCH,v1,Z,control,0,3,4,591
13,1,Block4,29,Cued,0,0,MATCH,d2,H,3back,0,4,3,1282
13,1,Block4,30,Cued,0,0,NONMATCH,0,S,control,0,3,4,893
13,1,Block4,31,Cued,0,0,NONMATCH,v2,D,4back,1,3,3,1556
13,1,Block4,32,Cued,0,0,NONMATCH,v2,Z,4back,0,3,4,1405
14,1,Block1,1,Uncued,0,0,NONMATCH,0,J,control,1,4,4,566
14,1,Block1,2,Uncued,0,0,NONMATCH,d1,E,control,1,4,4,444
14,1,Block1,3,Uncued,0,0,NONMATCH,0,G,control,1,4,4,461
14,1,Block1,4,Uncued,2,0,NONMATCH,t1,M,control,1,4,4,526
14,1,Block1,5,Uncued,0,0,MATCH,d2,E,3back,1,3,3,577
14,1,Block1,6,Uncued,0,0,NONMATCH,t2,M,2back,1,4,4,952
14,1,Block1,7,Uncued,0,0,NONMATCH,d1,W,control,1,4,4,633
14,1,Block1,8,Uncued,0,0,NONMATCH,0,H,control,1,4,4,677
14,1,Block1,9,Uncued,4,0,NONMATCH,v1,T,control,1,4,4,587
14,1,Block1,10,Uncued,0,0,MATCH,d2,W,3back,1,3,3,1781
14,1,Block1,11,Uncued,0,0,NONMATCH,0,R,control,1,4,4,1003
14,1,Block1,12,Uncued,4,0,NONMATCH,v1,D,control,1,4,4,698
14,1,Block1,13,Uncued,0,0,NONMATCH,v2,T,4back,0,4,3,1866
14,1,Block1,14,Uncued,0,0,NONMATCH,d1,U,control,1,4,4,1394
14,1,Block1,15,Uncued,0,0,NONMATCH,0,L,control,1,4,4,508
14,1,Block1,16,Uncued,0,0,NONMATCH,v2,D,4back,1,4,4,733
14,1,Block1,17,Uncued,0,0,MATCH,d2,U,3back,1,3,3,875
14,1,Block1,18,Uncued,2,0,NONMATCH,t1,Y,control,1,4,4,1575
14,1,Block1,19,Uncued,0,0,NONMATCH,0,B,control,1,4,4,631
14,1,Block1,20,Uncued,0,0,NONMATCH,t2,Y,2back,1,4,4,1327
14,1,Block1,21,Uncued,0,0,NONMATCH,d1,S,control,1,4,4,552
14,1,Block1,22,Uncued,4,0,NONMATCH,v1,Z,control,1,4,4,760
14,1,Block1,23,Uncued,4,0,NONMATCH,v1,O,control,1,4,4,564
14,1,Block1,24,Uncued,0,0,MATCH,d2,S,3back,1,3,3,791
14,1,Block1,25,Uncued,0,0,NONMATCH,0,A,control,1,4,4,786
14,1,Block1,26,Uncued,0,0,NONMATCH,v2,Z,4back,0,4,3,842
14,1,Block1,27,Uncued,0,0,NONMATCH,v2,O,4back,0,4,,0
14,1,Block1,28,Uncued,2,0,NONMATCH,t1,C,control,1,4,4,709
14,1,Block1,29,Uncued,2,0,NONMATCH,t1,P,control,1,4,4,549
14,1,Block1,30,Uncued,0,0,NONMATCH,t2,C,2back,1,4,4,878
14,1,Block1,31,Uncued,0,0,NONMATCH,t2,P,2back,0,4,3,533
14,1,Block1,32,Uncued,0,0,NONMATCH,0,K,control,1,4,4,991
14,1,Block2,1,Uncued,2,0,NONMATCH,t1,T,control,1,4,4,516
14,1,Block2,2,Uncued,0,0,NONMATCH,0,C,control,1,4,4,297
14,1,Block2,3,Uncued,0,0,NONMATCH,t2,T,2back,1,4,4,630
14,1,Block2,4,Uncued,0,0,NONMATCH,d1,O,control,1,4,4,548
14,1,Block2,5,Uncued,0,0,NONMATCH,0,H,control,1,4,4,730
14,1,Block2,6,Uncued,2,0,NONMATCH,t1,W,control,1,4,4,783
14,1,Block2,7,Uncued,0,0,MATCH,d2,O,3back,1,3,3,1816
14,1,Block2,8,Uncued,0,0,NONMATCH,t2,W,2back,1,4,4,1088
14,1,Block2,9,Uncued,0,0,NONMATCH,d1,M,control,1,4,4,605
14,1,Block2,10,Uncued,4,0,NONMATCH,v1,B,control,1,4,4,561
14,1,Block2,11,Uncued,0,0,NONMATCH,0,U,control,1,4,4,613
14,1,Block2,12,Uncued,0,0,MATCH,d2,M,3back,1,3,3,2287
14,1,Block2,13,Uncued,0,0,NONMATCH,d1,A,control,1,4,4,541
14,1,Block2,14,Uncued,0,0,NONMATCH,v2,B,4back,1,4,4,892
14,1,Block2,15,Uncued,2,0,NONMATCH,t1,P,control,1,4,4,602
14,1,Block2,16,Uncued,0,0,MATCH,d2,A,3back,1,3,3,366
14,1,Block2,17,Uncued,0,0,NONMATCH,t2,P,2back,1,4,4,666
14,1,Block2,18,Uncued,4,0,NONMATCH,v1,J,control,1,4,4,601
14,1,Block2,19,Uncued,0,0,NONMATCH,0,R,control,1,4,4,682
14,1,Block2,20,Uncued,4,0,NONMATCH,v1,D,control,1,4,4,850
14,1,Block2,21,Uncued,0,0,NONMATCH,0,L,control,1,4,4,893
14,1,Block2,22,Uncued,0,0,NONMATCH,v2,J,4back,0,4,3,753
14,1,Block2,23,Uncued,4,0,NONMATCH,v1,Z,control,1,4,4,961
14,1,Block2,24,Uncued,0,0,NONMATCH,v2,D,4back,1,4,4,486
14,1,Block2,25,Uncued,0,0,NONMATCH,0,K,control,1,4,4,664
14,1,Block2,26,Uncued,0,0,NONMATCH,d1,E,control,1,4,4,1129
14,1,Block2,27,Uncued,0,0,NONMATCH,v2,Z,4back,1,4,4,776
14,1,Block2,28,Uncued,0,0,NONMATCH,0,S,control,1,4,4,1251
14,1,Block2,29,Uncued,0,0,MATCH,d2,E,3back,1,3,3,848
14,1,Block2,30,Uncued,2,0,NONMATCH,t1,Y,control,1,4,4,917
14,1,Block2,31,Uncued,0,0,NONMATCH,0,G,control,1,4,4,378
14,1,Block2,32,Uncued,0,0,NONMATCH,t2,Y,2back,1,4,4,1032
14,1,Block3,1,Cued,2,0,NONMATCH,t1,G,control,1,4,4,946
14,1,Block3,2,Cued,0,0,NONMATCH,d1,E,control,1,4,4,598
14,1,Block3,3,Cued,0,0,NONMATCH,t2,G,2back,1,4,4,822
14,1,Block3,4,Cued,0,0,NONMATCH,0,M,control,1,4,4,511
14,1,Block3,5,Cued,0,0,MATCH,d2,E,3back,1,3,3,1072
14,1,Block3,6,Cued,4,0,NONMATCH,v1,O,control,1,4,4,850
14,1,Block3,7,Cued,2,0,NONMATCH,t1,J,control,1,4,4,1036
14,1,Block3,8,Cued,0,0,NONMATCH,0,Y,control,1,4,4,900
14,1,Block3,9,Cued,0,0,NONMATCH,t2,J,2back,1,4,4,1495
14,1,Block3,10,Cued,0,0,NONMATCH,v2,O,4back,1,4,4,1665
14,1,Block3,11,Cued,4,0,NONMATCH,v1,P,control,1,4,4,1170
14,1,Block3,12,Cued,4,0,NONMATCH,v1,W,control,1,4,4,757
14,1,Block3,13,Cued,0,0,NONMATCH,0,H,control,1,4,4,836
14,1,Block3,14,Cued,0,0,NONMATCH,d1,R,control,1,4,4,802
14,1,Block3,15,Cued,0,0,NONMATCH,v2,P,4back,1,4,4,948
14,1,Block3,16,Cued,0,0,NONMATCH,v2,W,4back,1,4,4,442
14,1,Block3,17,Cued,0,0,MATCH,d2,R,3back,0,3,4,1030
14,1,Block3,18,Cued,4,0,NONMATCH,v1,S,control,1,4,4,1742
14,1,Block3,19,Cued,0,0,NONMATCH,0,U,control,1,4,4,867
14,1,Block3,20,Cued,0,0,NONMATCH,d1,C,control,1,4,4,840
14,1,Block3,21,Cued,0,0,NONMATCH,0,T,control,1,4,4,785
14,1,Block3,22,Cued,0,0,NONMATCH,v2,S,4back,1,4,4,362
14,1,Block3,23,Cued,0,0,MATCH,d2,C,3back,1,3,3,428
14,1,Block3,24,Cued,0,0,NONMATCH,0,L,control,1,4,4,807
14,1,Block3,25,Cued,2,0,NONMATCH,t1,D,control,1,4,4,508
14,1,Block3,26,Cued,0,0,NONMATCH,0,Z,control,1,4,4,502
14,1,Block3,27,Cued,0,0,NONMATCH,t2,D,2back,0,4,3,1051
14,1,Block3,28,Cued,2,0,NONMATCH,t1,B,control,1,4,4,573
14,1,Block3,29,Cued,0,0,NONMATCH,d1,A,control,1,4,4,450
14,1,Block3,30,Cued,0,0,NONMATCH,t2,B,2back,1,4,4,759
14,1,Block3,31,Cued,0,0,NONMATCH,0,K,control,1,4,4,740
14,1,Block3,32,Cued,0,0,MATCH,d2,A,3back,1,3,3,620
14,1,Block4,1,Cued,0,0,NONMATCH,0,S,control,1,4,4,737
14,1,Block4,2,Cued,0,0,NONMATCH,0,K,control,1,4,4,190
14,1,Block4,3,Cued,0,0,NONMATCH,d1,J,control,1,4,4,217
14,1,Block4,4,Cued,0,0,NONMATCH,0,D,control,1,4,4,406
14,1,Block4,5,Cued,2,0,NONMATCH,t1,E,control,1,4,4,484
14,1,Block4,6,Cued,0,0,MATCH,d2,J,3back,0,3,4,936
14,1,Block4,7,Cued,0,0,NONMATCH,t2,E,2back,1,4,4,395
14,1,Block4,8,Cued,4,0,NONMATCH,v1,L,control,1,4,4,440
14,1,Block4,9,Cued,0,0,NONMATCH,0,P,control,1,4,4,971
14,1,Block4,10,Cued,4,0,NONMATCH,v1,Z,control,1,4,4,562
14,1,Block4,11,Cued,0,0,NONMATCH,0,A,control,1,4,4,600
14,1,Block4,12,Cued,0,0,NONMATCH,v2,L,4back,0,4,3,714
14,1,Block4,13,Cued,0,0,NONMATCH,d1,G,control,1,4,4,869
14,1,Block4,14,Cued,0,0,NONMATCH,v2,Z,4back,0,4,3,753
14,1,Block4,15,Cued,4,0,NONMATCH,v1,B,control,1,4,4,1025
14,1,Block4,16,Cued,0,0,MATCH,d2,G,3back,0,3,4,241
14,1,Block4,17,Cued,0,0,NONMATCH,d1,M,control,1,4,4,656
14,1,Block4,18,Cued,0,0,NONMATCH,0,H,control,1,4,4,1176
14,1,Block4,19,Cued,0,0,NONMATCH,v2,B,4back,1,4,4,869
14,1,Block4,20,Cued,0,0,MATCH,d2,M,3back,1,3,3,537
14,1,Block4,21,Cued,2,0,NONMATCH,t1,Y,control,1,4,4,402
14,1,Block4,22,Cued,0,0,NONMATCH,d1,R,control,1,4,4,613
14,1,Block4,23,Cued,0,0,NONMATCH,t2,Y,2back,1,4,4,1009
14,1,Block4,24,Cued,4,0,NONMATCH,v1,T,control,1,4,4,747
14,1,Block4,25,Cued,0,0,MATCH,d2,R,3back,1,3,3,562
14,1,Block4,26,Cued,0,0,NONMATCH,0,O,control,1,4,4,392
14,1,Block4,27,Cued,2,0,NONMATCH,t1,U,control,1,4,4,1017
14,1,Block4,28,Cued,0,0,NONMATCH,v2,T,4back,0,4,3,468
14,1,Block4,29,Cued,0,0,NONMATCH,t2,U,2back,1,4,4,463
14,1,Block4,30,Cued,2,0,NONMATCH,t1,C,control,1,4,4,817
14,1,Block4,31,Cued,0,0,NONMATCH,0,W,control,1,4,4,344
14,1,Block4,32,Cued,0,0,NONMATCH,t2,C,2back,1,4,4,743
15,1,Block1,1,Uncued,4,0,NONMATCH,v1,O,control,1,3,3,1180
15,1,Block1,2,Uncued,2,0,NONMATCH,t1,A,control,1,3,3,904
15,1,Block1,3,Uncued,0,0,NONMATCH,0,H,control,1,3,3,979
15,1,Block1,4,Uncued,0,0,NONMATCH,t2,A,2back,0,3,,0
15,1,Block1,5,Uncued,0,0,NONMATCH,v2,O,4back,1,3,3,1091
15,1,Block1,6,Uncued,0,0,NONMATCH,0,J,control,1,3,3,1195
15,1,Block1,7,Uncued,4,0,NONMATCH,v1,L,control,1,3,3,722
15,1,Block1,8,Uncued,0,0,NONMATCH,0,K,control,1,3,3,1174
15,1,Block1,9,Uncued,4,0,NONMATCH,v1,G,control,1,3,3,1683
15,1,Block1,10,Uncued,0,0,NONMATCH,0,C,control,1,3,3,1484
15,1,Block1,11,Uncued,0,0,NONMATCH,v2,L,4back,0,3,4,995
15,1,Block1,12,Uncued,0,0,NONMATCH,d1,B,control,1,3,3,960
15,1,Block1,13,Uncued,0,0,NONMATCH,v2,G,4back,0,3,4,1251
15,1,Block1,14,Uncued,0,0,NONMATCH,0,R,control,1,3,3,686
15,1,Block1,15,Uncued,0,0,MATCH,d2,B,3back,0,4,,0
15,1,Block1,16,Uncued,0,0,NONMATCH,d1,Y,control,1,3,3,671
15,1,Block1,17,Uncued,4,0,NONMATCH,v1,T,control,1,3,3,1158
15,1,Block1,18,Uncued,0,0,NONMATCH,0,W,control,1,3,3,1279
15,1,Block1,19,Uncued,0,0,MATCH,d2,Y,3back,0,4,3,1963
15,1,Block1,20,Uncued,0,0,NONMATCH,d1,P,control,1,3,3,1519
15,1,Block1,21,Uncued,0,0,NONMATCH,v2,T,4back,0,3,4,918
15,1,Block1,22,Uncued,2,0,NONMATCH,t1,D,control,1,3,3,509
15,1,Block1,23,Uncued,0,0,MATCH,d2,P,3back,0,4,3,1814
